time_stamp,gyro_x,gyro_y,gyro_z,accel_x,accel_y,accel_z,quat_x,quat_y,quat_z,quat_w
79,-15.94,-58.03,0.00,7.99,-2.08,0.00
86,-15.94,-56.11,0.00,7.22,-2.13,0.00
92,-10.12,-54.75,0.00,7.22,-2.29,0.00
100,-8.38,-52.97,0.00,6.89,-2.46,0.00
116,-6.50,-46.19,0.00,7.18,-2.79,0.00
127,-6.50,-42.85,0.00,7.18,-3.08,0.00
129,-11.00,-39.55,0.00,6.69,-2.85,0.00
133,-11.00,-36.32,0.00,6.69,-2.18,0.00
139,-22.69,-34.61,0.00,5.68,-2.22,0.00
146,-22.69,-34.97,0.00,5.10,-2.68,0.00
152,-31.94,-36.54,0.00,5.10,-2.75,0.00
160,-33.19,-38.36,0.00,4.91,-2.52,0.00
173,-30.50,-39.37,0.00,5.39,-2.15,0.00
179,-26.81,-38.94,0.00,5.58,-1.71,0.00
182,-26.81,-37.65,0.00,5.58,-1.38,0.00
187,-16.12,-36.14,0.00,5.82,-1.16,0.00
193,-16.12,-34.58,0.00,5.82,-0.89,0.00
199,-16.12,-33.38,0.00,6.14,-0.86,0.00
207,-16.12,-32.85,0.00,6.15,-1.48,0.00
215,8.31,-32.44,0.00,6.15,-2.48,0.00
223,20.12,-31.67,0.00,6.13,-3.26,0.00
229,18.69,-30.42,0.00,6.27,-3.36,0.00
233,18.69,-28.55,0.00,6.27,-2.70,0.00
239,88.94,-22.47,0.00,7.60,-2.70,0.00
246,88.94,-9.33,0.00,7.60,-4.45,0.00
252,88.94,4.04,0.00,3.40,-6.47,0.00
260,78.25,12.00,0.00,11.61,-7.61,0.00
281,-21.62,12.13,0.00,0.66,-5.74,0.00
285,-21.62,3.77,0.00,0.66,-2.37,0.00
292,-6.31,-2.31,0.00,4.92,0.45,0.00
299,-2.75,-0.26,0.00,6.46,0.98,0.00
306,-2.75,5.85,0.00,6.46,0.12,0.00
313,7.19,10.20,0.00,4.49,-0.90,0.00
321,-3.38,12.28,0.00,4.03,-1.70,0.00
327,-3.38,14.21,0.00,4.07,-2.13,0.00
332,-14.38,15.96,0.00,4.07,-2.07,0.00
338,-13.38,16.29,0.00,5.29,-1.81,0.00
345,-13.38,15.29,0.00,5.29,-1.60,0.00
352,-11.06,13.47,0.00,4.95,-1.47,0.00
361,-11.62,11.15,0.00,4.56,-1.41,0.00
376,-11.62,9.30,0.00,4.72,-1.44,0.00
380,-16.12,9.28,0.00,4.57,-1.37,0.00
386,-16.12,10.22,0.00,4.57,-1.23,0.00
392,-14.62,10.91,0.00,4.28,-1.13,0.00
399,-14.25,11.26,0.00,4.88,-1.10,0.00
405,-14.25,11.42,0.00,4.88,-1.10,0.00
413,-12.56,11.19,0.00,4.52,-1.08,0.00
422,-12.38,10.42,0.00,4.44,-1.03,0.00
428,-12.38,9.66,0.00,4.72,-0.95,0.00
432,-12.06,9.58,0.00,4.72,-0.90,0.00
439,-10.44,10.27,0.00,4.66,-0.92,0.00
445,-10.44,11.08,0.00,4.66,-1.00,0.00
452,-11.50,11.61,0.00,4.49,-1.09,0.00
461,-11.75,11.96,0.00,4.75,-1.16,0.00
468,-11.75,12.10,0.00,4.71,-1.19,0.00
475,-13.62,12.06,0.00,4.71,-1.15,0.00
479,-11.38,11.96,0.00,4.90,-1.11,0.00
485,-11.38,11.81,0.00,4.90,-1.11,0.00
492,-11.56,11.73,0.00,4.90,-1.12,0.00
499,-11.56,11.89,0.00,5.00,-1.06,0.00
505,-11.56,12.24,0.00,5.00,-1.01,0.00
514,-11.81,12.55,0.00,4.51,-1.03,0.00
522,-12.62,12.64,0.00,4.76,-1.11,0.00
529,-12.62,12.53,0.00,4.74,-1.19,0.00
532,-11.94,12.17,0.00,4.74,-1.23,0.00
538,-11.94,11.51,0.00,4.68,-1.19,0.00
547,-12.75,10.84,0.00,5.03,-1.08,0.00
553,-10.94,10.37,0.00,5.03,-0.99,0.00
562,-11.06,9.91,0.00,5.09,-0.94,0.00
567,-11.06,9.32,0.00,4.80,-0.88,0.00
576,-10.19,8.76,0.00,4.80,-0.84,0.00
579,-8.62,7.88,0.00,4.52,-0.84,0.00
585,-8.62,6.30,0.00,4.52,-0.84,0.00
592,-0.31,3.74,0.00,4.92,-0.88,0.00
598,-1.44,0.01,0.00,4.65,-0.96,0.00
605,-1.44,-3.36,0.00,4.65,-1.00,0.00
613,-2.50,-4.93,0.00,4.86,-0.94,0.00
622,-1.56,-4.96,0.00,4.91,-0.87,0.00
628,-1.56,-4.29,0.00,4.78,-0.86,0.00
632,-2.81,-3.67,0.00,4.78,-0.86,0.00
639,-2.81,-3.37,0.00,4.74,-0.85,0.00
647,-2.12,-3.20,0.00,4.74,-0.87,0.00
652,-2.19,-2.89,0.00,4.57,-0.90,0.00
667,-2.12,-1.74,0.00,4.88,-0.98,0.00
674,-3.00,-1.28,0.00,4.61,-1.01,0.00
680,-2.69,-1.15,0.00,4.90,-0.97,0.00
685,-2.69,-1.03,0.00,4.90,-0.89,0.00
693,-2.88,-0.90,0.00,4.86,-0.84,0.00
699,-2.88,-0.90,0.00,4.85,-0.87,0.00
708,-3.38,-0.96,0.00,4.85,-0.96,0.00
713,-3.25,-0.98,0.00,4.68,-1.00,0.00
721,-3.69,-0.91,0.00,4.83,-0.98,0.00
729,-3.69,-0.72,0.00,4.83,-1.01,0.00
733,-4.12,-0.43,0.00,4.77,-1.02,0.00
740,-3.19,0.04,0.00,4.84,-0.94,0.00
745,-3.19,0.61,0.00,4.84,-0.86,0.00
753,-4.06,1.03,0.00,4.69,-0.81,0.00
760,-3.69,1.38,0.00,4.90,-0.79,0.00
766,-3.69,1.82,0.00,4.90,-0.84,0.00
774,-3.88,2.20,0.00,4.73,-0.92,0.00
781,-4.38,2.47,0.00,4.85,-0.95,0.00
785,-4.38,2.76,0.00,4.85,-0.90,0.00
793,-3.81,3.07,0.00,4.78,-0.86,0.00
799,-3.81,3.34,0.00,5.16,-0.87,0.00
805,-4.50,3.26,0.00,5.16,-0.87,0.00
814,-3.44,2.08,0.00,4.80,-0.84,0.00
821,-1.69,-0.10,0.00,4.73,-0.83,0.00
828,-1.69,-1.95,0.00,4.73,-0.87,0.00
832,-1.12,-2.67,0.00,4.83,-0.92,0.00
839,-1.12,-2.50,0.00,4.79,-0.92,0.00
845,-0.38,-2.01,0.00,4.79,-0.96,0.00
852,-0.56,-1.67,0.00,4.74,-0.99,0.00
859,-0.56,-1.65,0.00,4.88,-0.92,0.00
867,0.50,-1.69,0.00,4.88,-0.86,0.00
874,1.00,-1.52,0.00,4.60,-0.83,0.00
882,1.25,-1.07,0.00,4.88,-0.78,0.00
885,1.25,-0.33,0.00,4.88,-0.76,0.00
892,1.44,0.26,0.00,4.78,-0.81,0.00
898,1.44,0.33,0.00,4.71,-0.85,0.00
905,0.75,-0.10,0.00,4.71,-0.83,0.00
914,3.62,-0.82,0.00,4.84,-0.80,0.00
920,3.50,-1.39,0.00,4.79,-0.83,0.00
927,3.50,-1.67,0.00,4.79,-0.81,0.00
934,4.88,-1.71,0.00,4.90,-0.76,0.00
939,4.88,-1.58,0.00,4.84,-0.79,0.00
945,3.88,-1.39,0.00,4.84,-0.92,0.00
952,2.31,-1.14,0.00,5.03,-1.00,0.00
958,2.31,-0.77,0.00,5.03,-0.96,0.00
966,3.50,-0.85,0.00,4.69,-0.91,0.00
975,3.31,-1.70,0.00,4.91,-0.94,0.00
981,2.44,-2.40,0.00,4.78,-0.98,0.00
986,2.44,-2.36,0.00,4.78,-0.99,0.00
995,4.12,-2.02,0.00,4.91,-0.99,0.00
1000,4.12,-1.80,0.00,4.77,-0.97,0.00
1006,2.62,-1.77,0.00,4.77,-0.92,0.00
1015,2.56,-1.78,0.00,4.65,-0.89,0.00
1033,2.94,-1.26,0.00,4.85,-0.77,0.00
1034,2.31,-0.97,0.00,4.85,-0.58,0.00
1041,2.31,-0.82,0.00,4.64,-0.61,0.00
1046,0.81,-0.95,0.00,4.64,-0.72,0.00
1052,0.50,-1.30,0.00,4.83,-0.73,0.00
1059,0.50,-1.41,0.00,4.68,-0.74,0.00
1068,1.12,-1.35,0.00,4.68,-0.76,0.00
1075,0.56,-1.39,0.00,4.93,-0.79,0.00
1081,0.56,-1.40,0.00,4.67,-0.85,0.00
1088,0.56,-1.33,0.00,4.67,-0.95,0.00
1093,-0.62,-1.22,0.00,4.89,-0.98,0.00
1099,-0.62,-1.02,0.00,4.89,-0.87,0.00
1106,-0.44,-0.81,0.00,4.74,-0.79,0.00
1114,-1.25,-0.63,0.00,4.67,-0.79,0.00
1121,-0.88,-0.36,0.00,4.92,-0.78,0.00
1135,-1.56,0.29,0.00,4.79,-0.88,0.00
1140,-1.56,0.25,0.00,4.91,-0.92,0.00
1147,-2.12,0.21,0.00,4.91,-0.89,0.00
1154,-2.06,0.55,0.00,4.63,-0.84,0.00
1160,-2.06,1.08,0.00,4.44,-0.77,0.00
1168,-2.00,1.50,0.00,4.44,-0.69,0.00
1174,-1.88,1.86,0.00,5.10,-0.71,0.00
1181,-1.88,2.26,0.00,4.87,-0.84,0.00
1186,-2.31,2.47,0.00,4.87,-0.85,0.00
1194,-1.81,2.30,0.00,4.63,-0.75,0.00
1200,-1.81,1.99,0.00,4.63,-0.69,0.00
1207,-0.75,1.85,0.00,4.96,-0.69,0.00
1214,-0.12,1.80,0.00,5.22,-0.67,0.00
1243,-0.12,1.54,0.00,4.97,-0.64,0.00
1245,-0.75,1.00,0.00,4.73,-0.67,0.00
1246,-0.75,1.05,0.00,4.73,-0.48,0.00
1248,5.25,1.38,0.00,4.57,-0.39,0.00
1253,3.69,2.32,0.00,4.88,-0.56,0.00
1260,3.69,3.79,0.00,4.88,-0.67,0.00
1268,3.31,5.09,0.00,4.68,-0.64,0.00
1280,4.94,5.99,0.00,4.75,-0.60,0.00
1281,4.94,6.64,0.00,4.60,-0.59,0.00
1285,8.56,7.34,0.00,4.60,-0.66,0.00
1293,7.56,8.58,0.00,4.57,-0.74,0.00
1299,7.56,10.17,0.00,4.57,-0.75,0.00
1308,9.62,11.66,0.00,4.35,-0.71,0.00
1312,12.50,13.45,0.00,4.35,-0.64,0.00
1321,12.50,15.68,0.00,4.84,-0.56,0.00
1332,15.50,18.11,0.00,4.84,-0.49,0.00
1333,19.81,21.17,0.00,4.44,-0.47,0.00
1339,19.81,24.39,0.00,4.44,-0.52,0.00
1345,18.75,26.89,0.00,4.39,-0.56,0.00
1358,24.00,29.14,0.00,3.86,-0.62,0.00
1359,24.00,31.37,0.00,3.86,-0.77,0.00
1368,27.56,33.73,0.00,3.15,-0.86,0.00
1373,31.81,38.46,0.00,5.68,-0.95,0.00
1381,31.81,46.09,0.00,5.55,-1.20,0.00
1385,24.19,54.58,0.00,5.55,-1.34,0.00
1392,28.88,63.21,0.00,4.86,-1.32,0.00
1424,28.88,70.26,0.00,4.86,-1.41,0.00
1425,37.69,74.65,0.00,5.58,-1.55,0.00
1426,40.12,78.61,0.00,4.81,-1.59,0.00
1427,40.12,83.10,0.00,5.35,-1.43,0.00
1429,31.69,87.89,0.00,5.35,-1.18,0.00
1433,35.00,95.69,0.00,5.91,-1.00,0.00
1439,35.00,106.85,0.00,5.91,-0.92,0.00
1453,47.25,113.85,0.00,0.61,-0.68,0.00
1458,46.38,110.25,0.00,7.95,-0.61,0.00
1460,46.38,99.90,0.00,7.95,-1.42,0.00
1469,38.00,95.00,0.00,5.76,-2.22,0.00
1473,31.75,104.28,0.00,3.34,-1.87,0.00
1482,31.75,121.64,0.00,7.77,-1.04,0.00
1485,30.94,135.70,0.00,7.77,-0.83,0.00
1492,30.94,142.98,0.00,4.55,-0.85,0.00
1499,72.31,152.83,0.00,4.55,-0.42,0.00
1505,24.38,171.49,0.00,7.72,-0.21,0.00
1514,42.06,188.49,0.00,8.88,-0.79,0.00
1521,42.06,198.42,0.00,7.74,-1.33,0.00
1531,81.69,207.99,0.00,7.74,-1.23,0.00
1534,101.94,222.22,0.00,7.23,-1.00,0.00
1539,101.94,236.45,0.00,7.23,-1.06,0.00
1545,101.44,244.72,0.00,7.36,-1.27,0.00
1552,101.44,247.86,0.00,7.32,-1.42,0.00
1559,99.75,248.44,0.00,7.32,-1.45,0.00
1569,102.00,248.95,0.00,8.04,-1.49,0.00
1573,105.81,253.50,0.00,6.53,-1.56,0.00
1581,105.81,263.33,0.00,6.51,-1.52,0.00
1585,113.38,273.95,0.00,6.51,-1.38,0.00
1592,113.38,248.24,0.00,6.90,-1.38,0.00
1599,132.19,190.13,0.00,6.90,-1.66,0.00
1605,122.50,182.14,0.00,6.31,-2.13,0.00
1615,115.88,226.17,0.00,9.81,-2.58,0.00
1621,115.88,263.85,0.00,9.18,-2.63,0.00
1626,105.25,279.43,0.00,9.18,-2.21,0.00
1635,71.00,266.54,0.00,13.55,-1.77,0.00
1638,71.00,226.77,0.00,13.55,-1.58,0.00
1647,55.50,174.60,0.00,13.96,-1.66,0.00
1652,55.50,119.91,0.00,14.79,-2.41,0.00
1659,17.31,68.58,0.00,14.79,-3.88,0.00
1667,-55.44,11.35,0.00,11.51,-5.01,0.00
1673,-119.00,-59.73,0.00,7.90,-4.93,0.00
1681,-119.00,-126.20,0.00,5.81,-3.76,0.00
1686,-151.19,-169.79,0.00,5.81,-2.30,0.00
1694,-151.19,-192.04,0.00,2.74,-0.92,0.00
1702,-163.38,-202.70,0.00,2.74,0.59,0.00
1708,-148.75,-209.40,0.00,3.29,1.84,0.00
1714,-115.56,-212.53,0.00,3.58,2.59,0.00
1723,-115.56,-210.05,0.00,5.34,2.97,0.00
1729,-63.75,-204.80,0.00,5.34,3.08,0.00
1734,-21.00,-201.89,0.00,6.28,2.80,0.00
1739,-21.00,-204.61,0.00,6.28,2.06,0.00
1747,4.25,-210.28,0.00,5.85,1.28,0.00
1752,4.25,-215.02,0.00,6.82,0.54,0.00
1760,12.19,-217.71,0.00,6.82,-0.26,0.00
1768,9.69,-219.08,0.00,6.17,-1.03,0.00
1773,-10.50,-219.08,0.00,6.07,-1.78,0.00
1782,-10.50,-216.40,0.00,6.81,-2.35,0.00
1785,-38.81,-211.57,0.00,6.81,-2.68,0.00
1792,-38.81,-205.93,0.00,6.81,-2.83,0.00
1798,-49.00,-199.65,0.00,7.66,-2.77,0.00
1805,-60.94,-190.57,0.00,8.13,-2.31,0.00
1813,-60.94,-179.22,0.00,8.92,-1.64,0.00
1822,-47.62,-151.73,0.00,8.92,-1.39,0.00
1827,-50.88,-113.31,0.00,9.07,-1.47,0.00
1833,-43.94,-108.61,0.00,9.79,-1.46,0.00
1839,-43.94,-135.64,0.00,9.79,-1.50,0.00
1845,-38.69,-159.76,0.00,10.13,-1.76,0.00
1852,-38.69,-171.61,0.00,10.36,-2.30,0.00
1860,-43.56,-173.18,0.00,10.36,-2.89,0.00
1867,-45.19,-167.23,0.00,10.79,-3.26,0.00
1875,-46.62,-156.14,0.00,11.17,-3.52,0.00
1882,-46.62,-144.31,0.00,11.17,-3.74,0.00
1890,-44.31,-135.34,0.00,11.04,-3.93,0.00
1892,-44.31,-129.21,0.00,11.04,-4.11,0.00
1898,-37.00,-124.91,0.00,10.25,-4.23,0.00
1906,-36.00,-121.92,0.00,9.95,-4.34,0.00
1913,-36.00,-120.58,0.00,9.38,-4.66,0.00
1923,-30.25,-119.92,0.00,8.94,-5.12,0.00
1927,-34.88,-117.82,0.00,8.94,-5.45,0.00
1934,-41.69,-114.57,0.00,9.05,-5.59,0.00
1938,-41.69,-111.90,0.00,9.05,-5.60,0.00
1945,-43.31,-110.02,0.00,8.97,-5.57,0.00
1952,-43.31,-108.21,0.00,8.97,-5.49,0.00
1960,-34.81,-106.46,0.00,8.66,-5.39,0.00
1965,-31.88,-104.24,0.00,8.21,-5.18,0.00
1974,-31.88,-101.08,0.00,8.08,-4.76,0.00
1983,-32.31,-96.92,0.00,8.08,-4.31,0.00
1986,-28.62,-90.17,0.00,8.03,-4.02,0.00
1993,-28.62,-81.72,0.00,8.03,-3.86,0.00
1999,-24.94,-74.63,0.00,8.02,-3.77,0.00
2006,-24.50,-68.91,0.00,7.91,-3.75,0.00
2014,-24.50,-63.84,0.00,7.56,-3.72,0.00
2024,-27.06,-60.12,0.00,7.56,-3.29,0.00
2028,-26.94,-57.49,0.00,7.04,-2.56,0.00
2034,-29.00,-55.12,0.00,6.33,-2.42,0.00
2039,-29.00,-52.92,0.00,6.33,-2.75,0.00
2046,-27.75,-50.77,0.00,5.49,-2.92,0.00
2053,-27.75,-48.30,0.00,5.49,-2.85,0.00
2059,-24.94,-45.44,0.00,5.36,-2.68,0.00
2066,-7.44,-37.68,0.00,5.31,-2.55,0.00
2074,-23.44,-26.10,0.00,5.35,-2.48,0.00
2083,-21.81,-21.66,0.00,5.35,-2.44,0.00
2087,-9.50,-24.22,0.00,5.17,-2.43,0.00
2093,-9.50,-26.56,0.00,5.17,-2.47,0.00
2099,17.62,-27.55,0.00,5.45,-2.70,0.00
2107,22.38,-27.77,0.00,5.91,-3.23,0.00
2113,22.38,-27.35,0.00,5.91,-3.76,0.00
2123,46.25,-23.93,0.00,6.53,-4.04,0.00
2128,73.19,-13.78,0.00,2.87,-4.04,0.00
2135,35.69,3.16,0.00,9.67,-3.92,0.00
2139,35.69,21.92,0.00,9.67,-3.98,0.00
2146,-3.06,36.35,0.00,10.88,-3.86,0.00
2152,-3.06,44.82,0.00,10.88,-3.11,0.00
2159,3.94,44.87,0.00,3.15,-2.03,0.00
2166,20.06,33.87,0.00,2.15,-1.09,0.00
2174,20.06,18.88,0.00,2.70,-0.79,0.00
2183,16.56,10.20,0.00,2.70,-1.16,0.00
2187,11.75,11.92,0.00,4.25,-1.72,0.00
2194,11.75,20.19,0.00,4.25,-2.26,0.00
2200,4.81,28.22,0.00,5.80,-2.61,0.00
2206,-12.94,31.87,0.00,3.82,-2.55,0.00
2214,-12.94,30.43,0.00,4.98,-2.26,0.00
2223,-15.81,26.79,0.00,4.98,-2.25,0.00
2229,-22.38,24.04,0.00,4.61,-2.43,0.00
2235,-25.06,22.92,0.00,4.71,-2.31,0.00
2239,-25.06,22.84,0.00,4.71,-1.91,0.00
2246,-22.62,22.99,0.00,4.54,-1.58,0.00
2252,-22.62,23.03,0.00,4.54,-1.47,0.00
2259,-18.81,22.64,0.00,4.45,-1.53,0.00
2266,-21.56,21.54,0.00,4.29,-1.66,0.00
2275,-21.56,20.19,0.00,4.48,-1.68,0.00
2282,-23.56,19.28,0.00,4.48,-1.57,0.00
2287,-20.38,18.63,0.00,4.58,-1.48,0.00
2292,-20.38,17.82,0.00,4.58,-1.49,0.00
2298,-21.56,17.12,0.00,4.58,-1.53,0.00
2305,-21.56,16.85,0.00,4.47,-1.50,0.00
2316,-24.19,17.03,0.00,4.47,-1.44,0.00
2321,-22.25,17.43,0.00,4.17,-1.36,0.00
2326,-24.19,17.70,0.00,4.41,-1.29,0.00
2335,-24.19,17.96,0.00,4.56,-1.25,0.00
2339,-24.44,18.27,0.00,4.56,-1.22,0.00
2348,-24.44,18.44,0.00,4.71,-1.19,0.00
2356,-21.94,18.33,0.00,4.71,-1.18,0.00
2360,-19.62,17.71,0.00,4.39,-1.16,0.00
2369,-20.88,16.81,0.00,4.81,-1.11,0.00
2377,-4.88,14.27,0.00,4.68,-1.06,0.00
2385,-19.19,10.61,0.00,4.68,-1.05,0.00
2391,-17.44,10.03,0.00,4.72,-1.05,0.00
2400,-17.44,12.08,0.00,4.72,-1.00,0.00
2412,-23.44,14.27,0.00,4.76,-0.95,0.00
2420,-20.12,16.40,0.00,4.93,-0.91,0.00
2421,-20.12,17.66,0.00,5.04,-0.83,0.00
2422,-20.06,17.94,0.00,5.04,-0.73,0.00
2432,-20.00,17.92,0.00,4.50,-0.67,0.00
2446,-20.00,17.90,0.00,4.54,-0.74,0.00
2450,-15.12,17.34,0.00,4.54,-0.93,0.00
2451,-15.12,15.80,0.00,4.31,-1.09,0.00
2456,-12.69,13.62,0.00,4.31,-1.14,0.00
2463,-5.00,10.33,0.00,4.47,-1.14,0.00
2480,-5.00,5.98,0.00,4.66,-1.17,0.00
2492,-2.19,2.58,0.00,4.66,-1.22,0.00
2493,-1.06,1.24,0.00,4.69,-1.26,0.00
2498,-0.62,1.19,0.00,4.66,-1.23,0.00
2499,-0.62,1.50,0.00,4.66,-1.19,0.00
2507,0.88,1.85,0.00,4.65,-1.18,0.00
2514,0.56,2.20,0.00,4.64,-1.23,0.00
2517,0.56,2.45,0.00,4.64,-1.28,0.00
2531,-0.12,2.59,0.00,4.45,-1.28,0.00
2533,-0.69,2.68,0.00,4.72,-1.22,0.00
2541,-0.69,2.73,0.00,4.90,-1.14,0.00
2542,-1.25,2.73,0.00,4.90,-1.06,0.00
2547,-1.25,2.73,0.00,4.85,-1.02,0.00
2553,-2.81,2.41,0.00,4.85,-1.04,0.00
2558,-4.38,1.28,0.00,4.80,-1.05,0.00
2566,-5.88,-0.41,0.00,4.73,-1.07,0.00
2575,-5.88,-1.90,0.00,4.73,-1.13,0.00
2578,-7.31,-2.83,0.00,4.74,-1.17,0.00
2586,-7.19,-3.24,0.00,4.91,-1.19,0.00
2592,-7.19,-3.22,0.00,4.91,-1.34,0.00
2598,-6.00,-3.10,0.00,4.34,-1.43,0.00
2608,-7.44,-3.31,0.00,4.60,-1.21,0.00
2612,-7.44,-3.83,0.00,4.60,-0.89,0.00
2618,-4.06,-4.18,0.00,4.75,-0.76,0.00
2628,-2.75,-4.24,0.00,4.78,-0.82,0.00
2635,-2.75,-4.37,0.00,4.58,-0.89,0.00
2639,1.62,-4.80,0.00,4.58,-0.93,0.00
2645,1.62,-5.49,0.00,4.58,-0.98,0.00
2652,1.19,-6.08,0.00,4.46,-1.03,0.00
2658,-1.44,-5.93,0.00,4.73,-1.06,0.00
2666,-1.44,-4.85,0.00,4.61,-1.07,0.00
2675,-0.69,-3.53,0.00,4.61,-1.15,0.00
2679,-0.06,-2.45,0.00,4.65,-1.19,0.00
2687,-1.69,-1.43,0.00,4.81,-1.08,0.00
2692,-1.69,-0.32,0.00,4.81,-0.97,0.00
2698,-0.81,0.71,0.00,4.81,-0.98,0.00
2705,-0.81,1.59,0.00,4.81,-1.12,0.00
2716,-3.38,2.44,0.00,4.83,-1.20,0.00
2718,-5.12,3.74,0.00,4.81,-1.13,0.00
2727,-5.12,5.77,0.00,4.74,-1.06,0.00
2736,-5.12,7.88,0.00,4.74,-1.04,0.00
2741,-5.38,9.28,0.00,4.85,-1.02,0.00
2747,-5.38,9.81,0.00,4.85,-0.99,0.00
2752,-2.75,9.13,0.00,4.47,-0.94,0.00
2758,-0.06,6.54,0.00,4.88,-0.87,0.00
2768,0.81,2.95,0.00,4.66,-0.83,0.00
2776,0.81,0.19,0.00,4.66,-0.89,0.00
2779,1.75,-1.28,0.00,4.76,-0.96,0.00
2787,2.88,-2.21,0.00,4.66,-0.98,0.00
2792,2.88,-3.07,0.00,4.66,-0.98,0.00
2798,6.00,-3.88,0.00,4.76,-1.00,0.00
2806,6.00,-4.70,0.00,4.76,-1.02,0.00
2812,6.12,-5.45,0.00,4.77,-1.01,0.00
2818,6.19,-6.04,0.00,4.68,-0.96,0.00
2829,7.00,-6.68,0.00,4.82,-0.91,0.00
2834,7.00,-7.44,0.00,4.82,-0.87,0.00
2839,8.25,-8.23,0.00,4.83,-0.85,0.00
2845,8.25,-8.97,0.00,4.83,-0.87,0.00
2852,8.44,-9.61,0.00,4.62,-0.92,0.00
2859,7.00,-9.94,0.00,4.71,-0.98,0.00
2866,7.00,-9.70,0.00,4.58,-1.02,0.00
2875,5.56,-8.90,0.00,4.58,-1.06,0.00
2879,3.81,-7.55,0.00,4.62,-1.06,0.00
2888,2.44,-5.79,0.00,4.70,-1.00,0.00
2892,2.44,-4.10,0.00,4.70,-0.91,0.00
2899,3.62,-3.05,0.00,4.75,-0.86,0.00
2905,3.62,-2.78,0.00,4.75,-0.87,0.00
2912,2.88,-2.84,0.00,4.67,-0.89,0.00
2918,2.19,-2.69,0.00,4.51,-0.92,0.00
2932,2.19,-2.27,0.00,4.57,-0.95,0.00
2934,1.69,-1.85,0.00,4.57,-0.91,0.00
2943,0.56,-1.45,0.00,4.67,-0.88,0.00
2946,0.56,-0.93,0.00,4.67,-0.94,0.00
2952,0.88,-0.43,0.00,4.72,-1.00,0.00
2959,0.31,0.01,0.00,4.75,-1.00,0.00
2965,0.31,0.40,0.00,4.75,-0.99,0.00
2972,-0.25,0.69,0.00,4.58,-1.02,0.00
2981,-2.00,1.03,0.00,4.78,-1.03,0.00
2988,-2.19,1.57,0.00,4.61,-1.02,0.00
2994,-2.19,2.18,0.00,4.61,-1.01,0.00
2999,-2.50,2.62,0.00,4.66,-1.00,0.00
3007,-2.50,2.85,0.00,4.66,-0.98,0.00
3012,-3.06,3.05,0.00,4.78,-0.94,0.00
3019,-2.56,3.37,0.00,4.81,-0.93,0.00
3028,-2.56,3.68,0.00,4.67,-0.90,0.00
3033,-3.75,3.85,0.00,4.67,-0.84,0.00
3040,-3.50,3.90,0.00,4.66,-0.81,0.00
3046,-3.50,3.84,0.00,4.66,-0.87,0.00
3054,-3.38,3.78,0.00,5.01,-0.93,0.00
3059,-2.62,3.30,0.00,4.60,-0.96,0.00
3066,-2.62,2.00,0.00,4.60,-1.02,0.00
3073,-1.75,0.54,0.00,4.60,-1.01,0.00
3080,-2.62,-0.29,0.00,4.73,-0.88,0.00
3088,-2.62,-0.41,0.00,4.81,-0.78,0.00
3092,-0.69,-0.25,0.00,4.81,-0.84,0.00
3099,-1.75,-0.25,0.00,4.72,-0.92,0.00
3106,-1.75,-0.38,0.00,4.72,-0.94,0.00
3112,-1.62,-0.39,0.00,4.61,-0.91,0.00
3119,-2.12,-0.13,0.00,4.65,-0.85,0.00
3128,-2.12,0.32,0.00,4.70,-0.80,0.00
3135,-2.00,0.81,0.00,4.70,-0.82,0.00
3140,-2.50,1.36,0.00,4.73,-0.85,0.00
3146,-2.50,1.79,0.00,4.73,-0.83,0.00
3152,-2.50,2.19,0.00,4.86,-0.80,0.00
3161,-2.69,2.79,0.00,4.78,-0.84,0.00
3166,-2.69,3.38,0.00,4.78,-0.87,0.00
3172,-3.19,3.72,0.00,4.80,-0.87,0.00
3180,-3.00,3.92,0.00,4.72,-0.86,0.00
3189,-3.00,4.15,0.00,4.38,-0.81,0.00
3193,-4.12,4.43,0.00,4.38,-0.68,0.00
3199,-1.94,4.88,0.00,4.89,-0.61,0.00
3206,-1.94,5.48,0.00,4.89,-0.72,0.00
3212,-2.25,6.09,0.00,4.58,-0.83,0.00
3220,-1.00,6.89,0.00,4.43,-0.82,0.00
3229,-1.00,7.91,0.00,4.79,-0.75,0.00
3233,2.06,9.14,0.00,4.79,-0.63,0.00
3240,2.56,10.82,0.00,4.74,-0.54,0.00
3246,2.56,12.54,0.00,4.74,-0.55,0.00
3253,4.88,13.95,0.00,4.40,-0.61,0.00
3261,3.19,15.35,0.00,5.32,-0.70,0.00
3266,3.19,16.57,0.00,5.32,-0.84,0.00
3272,5.19,17.53,0.00,4.77,-0.92,0.00
3280,5.88,18.34,0.00,4.74,-0.87,0.00
3289,5.88,18.63,0.00,5.02,-0.73,0.00
3293,10.38,18.66,0.00,5.02,-0.63,0.00
3299,10.38,19.00,0.00,4.93,-0.62,0.00
3306,10.44,19.45,0.00,4.93,-0.66,0.00
3312,8.56,19.69,0.00,5.00,-0.70,0.00
3320,11.19,19.83,0.00,4.93,-0.68,0.00
3328,11.19,19.99,0.00,4.83,-0.70,0.00
3332,12.25,20.00,0.00,4.83,-0.82,0.00
3342,12.38,19.80,0.00,4.61,-0.92,0.00
3363,12.38,19.55,0.00,4.61,-0.93,0.00
3382,13.06,19.55,0.00,4.56,-0.91,0.00
3383,16.50,20.31,0.00,4.19,-0.92,0.00
3384,16.50,21.92,0.00,4.19,-0.94,0.00
3400,17.44,24.04,0.00,4.15,-0.94,0.00
3401,18.94,27.30,0.00,5.22,-0.97,0.00
3412,18.94,31.63,0.00,5.28,-1.05,0.00
3412,18.62,35.90,0.00,5.28,-1.11,0.00
3413,18.62,39.80,0.00,4.93,-1.16,0.00
3414,20.81,42.74,0.00,4.93,-1.27,0.00
3416,23.69,45.13,0.00,5.28,-1.34,0.00
3425,27.12,48.77,0.00,5.18,-1.29,0.00
3431,27.12,53.51,0.00,5.10,-1.17,0.00
3437,30.38,57.72,0.00,5.10,-1.04,0.00
3446,29.50,61.60,0.00,3.69,-0.93,0.00
3452,29.50,65.46,0.00,3.69,-0.84,0.00
3465,12.69,66.80,0.00,4.65,-0.80,0.00
3469,12.69,64.00,0.00,5.04,-0.78,0.00
3470,15.88,60.68,0.00,5.04,-0.69,0.00
3479,25.12,62.27,0.00,6.82,-0.72,0.00
3496,48.31,71.77,0.00,5.44,-1.09,0.00
3501,48.31,86.06,0.00,5.44,-1.55,0.00
3502,22.75,97.56,0.00,4.10,-1.67,0.00
3504,22.75,102.96,0.00,6.41,-1.44,0.00
3511,20.00,106.80,0.00,6.41,-1.31,0.00
3523,17.31,116.14,0.00,6.54,-1.37,0.00
3530,17.31,130.02,0.00,7.32,-1.37,0.00
3541,32.94,145.39,0.00,7.32,-1.20,0.00
3551,40.62,164.97,0.00,7.49,-1.02,0.00
3552,44.56,186.26,0.00,7.49,-0.94,0.00
3563,44.56,201.86,0.00,7.49,-0.94,0.00
3564,43.31,210.18,0.00,8.11,-0.89,0.00
3584,43.31,214.33,0.00,7.92,-0.65,0.00
3585,56.06,216.00,0.00,7.92,-0.31,0.00
3586,77.75,214.42,0.00,7.80,-0.22,0.00
3586,90.06,209.74,0.00,9.32,-0.59,0.00
3587,90.06,204.88,0.00,9.32,-1.13,0.00
3594,123.25,204.28,0.00,6.07,-1.36,0.00
3601,123.25,209.50,0.00,5.43,-1.18,0.00
3606,125.62,213.76,0.00,5.43,-0.89,0.00
3612,78.81,205.30,0.00,12.09,-0.91,0.00
3620,78.81,183.26,0.00,8.06,-1.15,0.00
3627,-2.38,152.13,0.00,8.06,-1.11,0.00
3632,-30.50,106.74,0.00,5.36,-0.65,0.00
3641,-44.06,52.40,0.00,3.94,0.27,0.00
3647,-44.06,8.54,0.00,3.94,1.50,0.00
3652,-23.81,-17.27,0.00,3.14,2.35,0.00
3659,-23.81,-31.28,0.00,3.14,2.51,0.00
3666,-12.81,-38.18,0.00,3.38,2.34,0.00
3672,-3.44,-39.90,0.00,4.51,1.99,0.00
3681,1.81,-39.49,0.00,4.96,1.41,0.00
3687,1.81,-38.99,0.00,4.96,0.81,0.00
3693,3.81,-39.70,0.00,5.13,0.48,0.00
3701,3.81,-42.00,0.00,5.13,0.41,0.00
3706,5.06,-45.39,0.00,5.39,0.45,0.00
3713,6.25,-50.31,0.00,5.39,0.50,0.00
3721,6.25,-56.27,0.00,5.87,0.47,0.00
3727,5.94,-61.78,0.00,5.87,0.33,0.00
3734,8.81,-67.43,0.00,6.19,0.14,0.00
3742,11.50,-73.86,0.00,6.21,-0.12,0.00
3751,11.50,-79.85,0.00,6.21,-0.41,0.00
3752,8.75,-84.43,0.00,5.88,-0.64,0.00
3759,8.75,-87.90,0.00,5.88,-0.78,0.00
3766,2.19,-90.66,0.00,5.80,-0.93,0.00
3773,0.62,-93.77,0.00,5.48,-1.17,0.00
3782,-7.12,-97.94,0.00,5.58,-1.41,0.00
3788,-7.12,-101.75,0.00,5.58,-1.55,0.00
3793,-14.31,-103.95,0.00,5.58,-1.65,0.00
3799,-14.31,-104.77,0.00,5.58,-1.77,0.00
3805,-13.19,-104.85,0.00,5.96,-1.87,0.00
3812,-13.81,-104.76,0.00,6.39,-1.89,0.00
3820,-13.81,-104.89,0.00,6.39,-1.85,0.00
3825,-27.31,-106.03,0.00,6.74,-1.76,0.00
3833,-23.94,-109.66,0.00,7.19,-1.66,0.00
3844,-22.12,-115.86,0.00,7.18,-1.67,0.00
3846,-22.12,-122.34,0.00,7.18,-1.79,0.00
3852,-20.31,-126.77,0.00,7.21,-1.95,0.00
3858,-20.31,-128.85,0.00,7.21,-2.13,0.00
3865,-20.12,-129.31,0.00,6.61,-2.28,0.00
3872,-16.88,-128.31,0.00,7.26,-2.42,0.00
3882,-16.88,-126.18,0.00,7.71,-2.56,0.00
3887,-15.19,-125.05,0.00,7.71,-2.62,0.00
3893,-17.56,-126.92,0.00,8.13,-2.66,0.00
3901,-17.56,-130.56,0.00,8.13,-2.75,0.00
3910,-10.69,-132.29,0.00,8.56,-2.86,0.00
3923,-15.19,-127.45,0.00,8.08,-2.96,0.00
3924,-15.19,-116.12,0.00,8.08,-3.03,0.00
3925,-23.88,-105.59,0.00,9.66,-3.12,0.00
3935,-6.00,-99.96,0.00,10.52,-3.28,0.00
3943,-6.00,-97.32,0.00,10.39,-3.37,0.00
3946,-8.56,-97.68,0.00,10.39,-3.30,0.00
3956,-8.56,-101.84,0.00,10.20,-3.18,0.00
3958,-10.25,-108.44,0.00,10.20,-3.13,0.00
3965,-5.25,-116.39,0.00,9.26,-3.20,0.00
3974,-7.69,-123.60,0.00,8.77,-3.44,0.00
3981,-7.69,-128.05,0.00,8.75,-3.80,0.00
4004,-3.31,-129.21,0.00,8.75,-4.16,0.00
4008,-1.31,-126.72,0.00,8.69,-4.46,0.00
4009,-1.31,-122.08,0.00,8.69,-4.70,0.00
4009,-7.25,-117.67,0.00,8.28,-4.92,0.00
4012,-8.00,-113.85,0.00,8.07,-5.17,0.00
4021,-8.00,-110.40,0.00,8.07,-5.43,0.00
4025,-0.31,-107.81,0.00,8.07,-5.61,0.00
4034,-0.19,-104.51,0.00,8.32,-5.74,0.00
4116,-0.19,-99.24,0.00,8.73,-5.83,0.00
4128,-11.81,-92.65,0.00,8.73,-5.82,0.00
4129,-11.81,-85.30,0.00,8.86,-5.74,0.00
4130,-22.81,-77.83,0.00,8.86,-5.66,0.00
4131,-13.69,-69.86,0.00,9.03,-5.60,0.00
4131,-8.62,-61.57,0.00,8.30,-5.42,0.00
4132,-8.62,-54.69,0.00,8.06,-5.11,0.00
4133,-4.94,-49.21,0.00,8.06,-4.97,0.00
4134,14.00,-43.54,0.00,7.72,-5.08,0.00
4135,14.00,-38.43,0.00,7.72,-5.30,0.00
4136,23.31,-34.79,0.00,7.90,-5.37,0.00
4136,23.31,-31.70,0.00,9.01,-4.94,0.00
4137,11.25,-26.48,0.00,9.01,-4.06,0.00
4168,26.75,-13.85,0.00,5.05,-3.35,0.00
4169,61.44,3.29,0.00,8.70,-3.37,0.00
4170,61.44,14.45,0.00,7.35,-3.73,0.00
4171,35.12,19.65,0.00,7.35,-3.55,0.00
4172,35.12,25.33,0.00,2.90,-2.91,0.00
4173,-4.06,29.66,0.00,2.90,-2.32,0.00
4173,34.69,27.98,0.00,6.45,-2.17,0.00
4175,21.31,23.21,0.00,9.59,-2.68,0.00
4181,21.31,21.63,0.00,9.59,-3.42,0.00
4186,-17.88,23.19,0.00,4.15,-3.59,0.00
4195,2.56,22.18,0.00,4.40,-3.23,0.00
4198,2.56,15.66,0.00,4.40,-3.23,0.00
4205,-9.06,9.22,0.00,3.17,-3.40,0.00
4212,-9.06,8.20,0.00,3.71,-3.00,0.00
4218,-32.69,11.45,0.00,3.71,-2.30,0.00
4225,-37.38,17.46,0.00,4.38,-1.85,0.00
4235,-35.38,24.47,0.00,4.42,-1.76,0.00
4242,-35.38,29.33,0.00,4.41,-1.87,0.00
4247,-35.19,31.29,0.00,4.41,-1.94,0.00
4252,-35.19,31.73,0.00,4.41,-1.94,0.00
4260,-41.25,31.96,0.00,4.02,-1.87,0.00
4265,-39.94,32.71,0.00,4.12,-1.70,0.00
4272,-39.94,33.67,0.00,4.45,-1.55,0.00
4280,-37.25,34.76,0.00,4.45,-1.54,0.00
4286,-35.75,36.48,0.00,4.59,-1.59,0.00
4295,-37.38,38.74,0.00,4.51,-1.57,0.00
4299,-37.38,40.95,0.00,4.51,-1.49,0.00
4305,-36.38,42.60,0.00,4.67,-1.41,0.00
4312,-36.38,43.63,0.00,4.67,-1.36,0.00
4318,-33.50,43.84,0.00,4.55,-1.33,0.00
4326,-25.88,42.65,0.00,4.60,-1.32,0.00
4335,-23.00,40.26,0.00,4.51,-1.32,0.00
4340,-23.00,37.93,0.00,4.51,-1.30,0.00
4346,-25.38,37.01,0.00,4.90,-1.27,0.00
4352,-25.38,37.80,0.00,4.90,-1.24,0.00
4358,-23.12,39.02,0.00,4.26,-1.27,0.00
4366,-28.44,40.43,0.00,5.05,-1.35,0.00
4375,-48.75,44.02,0.00,5.42,-1.28,0.00
4380,-48.75,49.69,0.00,5.42,-1.01,0.00
4386,-34.50,52.67,0.00,4.77,-0.80,0.00
4397,-29.88,48.88,0.00,5.16,-0.83,0.00
4399,-29.88,40.97,0.00,5.16,-0.99,0.00
4405,-22.44,33.77,0.00,5.22,-1.16,0.00
4413,-22.44,28.74,0.00,5.22,-1.27,0.00
4420,-19.88,25.65,0.00,4.97,-1.32,0.00
4426,-22.88,23.66,0.00,4.82,-1.27,0.00
4436,-19.00,21.40,0.00,4.89,-1.20,0.00
4441,-19.00,18.35,0.00,4.89,-1.21,0.00
4447,-1.12,13.41,0.00,5.13,-1.27,0.00
4452,-1.12,5.67,0.00,5.13,-1.31,0.00
4461,1.12,-1.82,0.00,4.67,-1.30,0.00
4465,-2.25,-6.59,0.00,5.73,-1.31,0.00
4474,-2.25,-9.18,0.00,5.68,-1.39,0.00
4479,-7.44,-11.33,0.00,5.68,-1.41,0.00
4487,-1.00,-13.26,0.00,5.03,-1.35,0.00
4502,5.00,-6.92,0.00,4.97,-1.30,0.00
4508,4.44,-2.20,0.00,5.61,-1.27,0.00
4513,4.44,0.58,0.00,5.61,-1.21,0.00
4519,11.00,2.65,0.00,4.81,-1.13,0.00
4527,7.62,6.42,0.00,4.53,-1.03,0.00
4536,0.88,9.45,0.00,5.36,-1.00,0.00
4543,0.88,7.20,0.00,5.36,-1.08,0.00
4548,-3.19,1.66,0.00,6.95,-1.46,0.00
4553,-3.19,-3.29,0.00,6.95,-2.24,0.00
4559,23.31,-6.20,0.00,4.81,-2.68,0.00
4567,3.06,-6.70,0.00,5.53,-2.25,0.00
4573,3.06,-5.57,0.00,5.53,-1.60,0.00
4580,3.69,-3.95,0.00,5.38,-1.30,0.00
4587,-0.19,-2.99,0.00,5.11,-1.28,0.00
4596,-2.88,-3.66,0.00,5.18,-1.33,0.00
4602,-2.88,-5.42,0.00,5.18,-1.33,0.00
4606,0.69,-7.64,0.00,5.29,-1.31,0.00
4612,0.69,-10.45,0.00,5.29,-1.30,0.00
4619,0.69,-12.86,0.00,5.19,-1.34,0.00
4627,-2.00,-14.35,0.00,5.03,-1.35,0.00
4636,-2.00,-15.56,0.00,4.93,-1.26,0.00
4642,-3.81,-16.38,0.00,4.93,-1.16,0.00
4648,-6.31,-16.60,0.00,4.85,-1.15,0.00
4652,-6.31,-16.56,0.00,4.85,-1.20,0.00
4659,-6.50,-16.17,0.00,4.99,-1.27,0.00
4666,-6.50,-15.24,0.00,4.84,-1.35,0.00
4672,-6.50,-14.26,0.00,4.84,-1.39,0.00
4679,-7.38,-13.54,0.00,4.77,-1.35,0.00
4688,-8.50,-12.47,0.00,4.97,-1.24,0.00
4696,-8.50,-10.89,0.00,5.11,-1.20,0.00
4700,-7.19,-9.53,0.00,5.11,-1.28,0.00
4706,-9.81,-8.59,0.00,5.10,-1.33,0.00
4714,-9.81,-7.63,0.00,4.92,-1.11,0.00
4720,-9.81,-6.81,0.00,4.92,-0.77,0.00
4727,-9.81,-6.28,0.00,4.85,-0.78,0.00
4735,-9.81,-5.79,0.00,4.95,-1.04,0.00
4742,-8.44,-5.38,0.00,4.95,-1.20,0.00
4748,-4.94,-5.49,0.00,4.51,-1.20,0.00
4752,-4.94,-6.30,0.00,4.51,-1.11,0.00
4759,-1.81,-7.28,0.00,4.43,-0.97,0.00
4766,2.12,-7.60,0.00,4.27,-0.81,0.00
4772,2.12,-7.05,0.00,4.27,-0.72,0.00
4780,3.00,-5.91,0.00,4.29,-0.69,0.00
4789,3.56,-4.17,0.00,4.65,-0.68,0.00
4796,3.56,-2.01,0.00,4.63,-0.72,0.00
4803,3.50,-0.15,0.00,4.63,-0.78,0.00
4806,3.44,1.23,0.00,4.59,-0.81,0.00
4812,3.44,2.13,0.00,4.59,-0.79,0.00
4819,6.19,2.21,0.00,4.62,-0.76,0.00
4826,8.00,1.06,0.00,4.80,-0.80,0.00
4836,8.00,-0.90,0.00,4.79,-0.90,0.00
4842,9.31,-2.75,0.00,4.79,-1.00,0.00
4850,10.06,-4.33,0.00,4.76,-1.05,0.00
4853,10.06,-5.67,0.00,4.76,-1.05,0.00
4861,10.06,-6.52,0.00,4.85,-1.05,0.00
4866,10.06,-6.90,0.00,4.80,-1.09,0.00
4874,10.31,-7.05,0.00,4.80,-1.15,0.00
4880,9.12,-7.13,0.00,4.69,-1.18,0.00
4889,8.31,-7.12,0.00,4.84,-1.16,0.00
4895,8.31,-6.99,0.00,4.65,-1.11,0.00
4900,8.94,-6.96,0.00,4.65,-1.09,0.00
4906,8.94,-7.23,0.00,4.65,-1.09,0.00
4914,8.94,-7.68,0.00,4.65,-1.09,0.00
4919,8.31,-8.21,0.00,4.81,-1.10,0.00
4927,6.50,-8.78,0.00,4.47,-1.10,0.00
4934,6.50,-9.28,0.00,4.47,-1.08,0.00
4940,5.38,-9.50,0.00,4.63,-1.07,0.00
4949,4.06,-9.13,0.00,4.72,-1.11,0.00
4953,4.06,-8.19,0.00,4.72,-1.18,0.00
4960,1.81,-6.96,0.00,4.59,-1.22,0.00
4967,0.50,-5.20,0.00,4.50,-1.20,0.00
4976,0.50,-3.08,0.00,4.50,-1.16,0.00
4979,-0.62,-1.35,0.00,4.62,-1.11,0.00
4988,-0.31,-0.23,0.00,4.57,-1.06,0.00
4994,-0.31,0.34,0.00,4.57,-1.05,0.00
5000,-1.25,0.54,0.00,4.68,-1.05,0.00
5005,-1.25,0.71,0.00,4.64,-1.02,0.00
5012,-1.31,0.90,0.00,4.64,-0.98,0.00
5018,-1.94,1.14,0.00,4.55,-0.96,0.00
5027,-1.94,1.44,0.00,4.81,-0.96,0.00
5033,-2.81,1.82,0.00,4.81,-0.96,0.00
5040,-3.19,2.37,0.00,4.62,-0.97,0.00
5048,-3.56,2.98,0.00,4.65,-0.99,0.00
5052,-3.56,3.49,0.00,4.65,-1.03,0.00
5058,-3.75,3.83,0.00,4.68,-1.04,0.00
5065,-3.75,4.06,0.00,4.68,-1.04,0.00
5072,-3.19,4.19,0.00,4.68,-1.05,0.00
5079,-3.88,4.30,0.00,4.78,-1.06,0.00
5087,-3.44,4.48,0.00,4.74,-1.03,0.00
5093,-3.44,4.62,0.00,4.74,-0.99,0.00
5100,-3.62,4.72,0.00,4.79,-0.97,0.00
5106,-3.62,4.86,0.00,4.79,-0.97,0.00
5112,-4.38,5.01,0.00,4.77,-0.97,0.00
5120,-3.81,4.77,0.00,4.90,-0.98,0.00
5127,-3.81,3.84,0.00,4.90,-1.00,0.00
5133,-0.50,2.24,0.00,4.56,-0.99,0.00
5140,-0.25,0.15,0.00,4.63,-0.94,0.00
5148,-0.81,-1.52,0.00,4.66,-0.94,0.00
5153,-0.81,-2.11,0.00,4.66,-0.96,0.00
5158,-1.31,-1.96,0.00,4.64,-0.96,0.00
5173,-1.31,-1.56,0.00,4.79,-0.96,0.00
5211,-1.38,-1.09,0.00,4.79,-1.01,0.00
5212,-2.50,-0.59,0.00,4.68,-1.06,0.00
5213,-0.69,-0.18,0.00,4.62,-1.02,0.00
5214,-0.69,0.08,0.00,4.62,-0.96,0.00
5215,-0.38,0.18,0.00,4.79,-0.95,0.00
5216,-0.38,0.15,0.00,4.79,-0.96,0.00
5217,-1.00,0.03,0.00,4.72,-0.98,0.00
5219,-1.12,-0.15,0.00,4.82,-1.02,0.00
5227,-1.12,-0.28,0.00,4.73,-1.06,0.00
5233,-1.62,-0.32,0.00,4.73,-1.07,0.00
5241,-2.06,-0.21,0.00,4.74,-1.08,0.00
5249,-2.06,0.02,0.00,4.64,-1.08,0.00
5253,-2.94,0.32,0.00,4.64,-1.01,0.00
5259,-2.88,0.69,0.00,4.59,-0.96,0.00
5265,-2.88,1.00,0.00,4.59,-1.00,0.00
5272,-3.12,1.23,0.00,4.51,-1.05,0.00
5278,-3.69,1.53,0.00,5.14,-1.00,0.00
5287,-3.69,1.92,0.00,4.69,-0.91,0.00
5292,-4.44,2.21,0.00,4.69,-0.85,0.00
5303,-5.62,2.37,0.00,4.64,-0.80,0.00
5305,-5.62,2.49,0.00,4.64,-0.72,0.00
5312,-5.44,2.74,0.00,4.71,-0.68,0.00
5319,-6.19,3.27,0.00,4.78,-0.76,0.00
5328,-6.19,3.93,0.00,4.78,-0.85,0.00
5334,-5.88,4.48,0.00,4.62,-0.91,0.00
5342,-6.25,4.90,0.00,4.53,-0.92,0.00
5354,-5.25,5.52,0.00,5.03,-0.88,0.00
5360,-4.44,6.20,0.00,4.61,-0.92,0.00
5365,-4.44,6.90,0.00,4.61,-0.95,0.00
5372,0.38,7.34,0.00,4.79,-0.92,0.00
5380,-1.38,7.58,0.00,4.58,-0.83,0.00
5386,-1.38,7.72,0.00,4.78,-0.74,0.00
5393,0.25,7.94,0.00,4.78,-0.68,0.00
5404,0.75,8.53,0.00,4.80,-0.67,0.00
5405,0.75,9.38,0.00,4.80,-0.68,0.00
5412,1.50,10.19,0.00,4.72,-0.70,0.00
5419,1.81,11.07,0.00,4.73,-0.72,0.00
5425,1.81,12.04,0.00,4.73,-0.70,0.00
5432,3.69,12.97,0.00,4.51,-0.69,0.00
5441,3.81,14.04,0.00,4.88,-0.73,0.00
5453,5.00,15.81,0.00,4.32,-0.83,0.00
5459,7.69,16.50,0.00,4.59,-0.71,0.00
5465,7.69,17.61,0.00,4.59,-0.49,0.00
5473,11.25,18.86,0.00,4.82,-0.47,0.00
5479,19.44,20.20,0.00,4.62,-0.60,0.00
5488,19.44,21.65,0.00,4.62,-0.62,0.00
5506,20.88,26.80,0.00,3.31,-0.61,0.00
5507,20.88,31.09,0.00,3.31,-0.58,0.00
5514,23.56,36.14,0.00,3.69,-0.61,0.00
5520,24.56,44.40,0.00,4.07,-0.81,0.00
5526,24.56,55.01,0.00,4.07,-0.86,0.00
5535,27.75,64.27,0.00,6.06,-0.77,0.00
5541,34.69,62.32,0.00,4.88,-0.93,0.00
5554,34.19,50.82,0.00,4.27,-1.25,0.00
5559,31.06,64.96,0.00,5.46,-1.20,0.00
5565,31.06,78.24,0.00,5.46,-1.05,0.00
5573,33.25,85.62,0.00,4.82,-0.86,0.00
5579,50.44,89.91,0.00,5.33,-0.66,0.00
5587,50.44,95.95,0.00,5.33,-0.50,0.00
5595,70.25,104.79,0.00,6.84,-0.67,0.00
5601,33.62,116.38,0.00,4.52,-1.08,0.00
5606,33.62,127.35,0.00,4.52,-1.09,0.00
5611,32.38,135.26,0.00,6.70,-0.86,0.00
5619,51.81,146.82,0.00,7.88,-1.00,0.00
5626,51.81,165.66,0.00,7.88,-1.41,0.00
5632,67.19,184.98,0.00,7.58,-1.62,0.00
5641,65.38,201.64,0.00,7.93,-1.43,0.00
5648,65.38,215.64,0.00,7.79,-1.09,0.00
5654,60.12,225.43,0.00,7.79,-0.82,0.00
5659,60.12,231.94,0.00,8.09,-0.77,0.00
5667,63.69,234.66,0.00,8.09,-1.01,0.00
5672,77.56,233.55,0.00,7.74,-1.31,0.00
5680,77.75,232.42,0.00,7.25,-1.52,0.00
5687,77.75,233.14,0.00,7.25,-1.61,0.00
5695,76.19,234.64,0.00,7.03,-1.63,0.00
5702,74.50,236.84,0.00,7.09,-1.64,0.00
5707,74.50,239.99,0.00,7.09,-1.68,0.00
5712,84.00,244.79,0.00,8.36,-1.69,0.00
5721,84.00,251.97,0.00,7.40,-1.70,0.00
5727,114.56,260.82,0.00,7.40,-1.84,0.00
5743,111.62,270.30,0.00,9.08,-1.99,0.00
5745,72.06,269.99,0.00,12.23,-2.26,0.00
5749,72.06,251.98,0.00,18.00,-2.98,0.00
5755,-32.12,210.83,0.00,18.00,-3.91,0.00
5759,-95.44,137.10,0.00,7.20,-4.10,0.00
5766,-95.44,49.70,0.00,7.20,-3.13,0.00
5772,-150.31,-22.97,0.00,2.29,-1.46,0.00
5779,-122.50,-73.75,0.00,-1.40,0.70,0.00
5788,-122.50,-104.02,0.00,-1.40,2.75,0.00
5796,-91.88,-114.53,0.00,-0.23,3.81,0.00
5804,-60.56,-107.52,0.00,3.25,3.83,0.00
5806,-60.56,-92.38,0.00,3.25,3.26,0.00
5813,-28.44,-79.93,0.00,5.70,2.47,0.00
5819,-28.44,-73.96,0.00,5.70,1.56,0.00
5825,-19.38,-75.51,0.00,6.69,0.71,0.00
5832,-31.69,-87.60,0.00,6.42,-0.04,0.00
5840,-38.06,-108.44,0.00,5.92,-0.61,0.00
5848,-38.06,-129.09,0.00,5.92,-0.86,0.00
5854,-45.81,-142.81,0.00,6.03,-0.93,0.00
5860,-45.81,-149.92,0.00,5.50,-1.03,0.00
5865,-45.25,-154.28,0.00,5.50,-1.16,0.00
5872,-45.12,-159.06,0.00,5.00,-1.22,0.00
5879,-45.12,-163.44,0.00,6.08,-1.39,0.00
5887,-45.44,-165.64,0.00,6.08,-1.92,0.00
5895,-39.06,-164.39,0.00,4.07,-2.49,0.00
5900,-47.06,-160.43,0.00,5.32,-2.84,0.00
5906,-47.06,-158.02,0.00,5.32,-3.01,0.00
5912,-45.06,-157.45,0.00,5.51,-3.10,0.00
5918,-45.06,-156.07,0.00,5.51,-3.18,0.00
5925,-55.75,-153.91,0.00,6.38,-3.13,0.00
5932,-52.94,-150.95,0.00,6.57,-2.80,0.00
5942,-53.81,-146.60,0.00,6.94,-2.34,0.00
5948,-53.81,-142.02,0.00,6.94,-1.95,0.00
5955,-39.94,-139.16,0.00,7.37,-1.75,0.00
5959,-39.94,-138.48,0.00,7.37,-1.76,0.00
5965,-38.19,-138.94,0.00,8.91,-1.58,0.00
5972,-42.06,-139.14,0.00,9.42,-1.35,0.00
5980,-42.06,-138.34,0.00,9.60,-1.84,0.00
5989,-46.50,-136.60,0.00,9.60,-2.71,0.00
5996,-49.81,-132.86,0.00,10.21,-3.19,0.00
6002,-49.94,-125.47,0.00,10.33,-3.30,0.00
6007,-49.94,-116.16,0.00,10.33,-3.33,0.00
6012,-43.44,-108.46,0.00,10.41,-3.37,0.00
6019,-43.44,-103.42,0.00,10.41,-3.41,0.00
6025,-31.31,-101.46,0.00,10.25,-3.49,0.00
6034,-17.81,-102.91,0.00,10.72,-3.73,0.00
6040,-9.38,-106.17,0.00,10.88,-4.22,0.00
6050,-9.38,-109.33,0.00,10.88,-4.76,0.00
6055,-9.81,-112.48,0.00,10.29,-5.14,0.00
6059,-9.81,-116.50,0.00,10.29,-5.38,0.00
6065,-9.81,-120.24,0.00,10.04,-5.55,0.00
6072,-7.81,-122.53,0.00,9.17,-5.73,0.00
6080,-7.81,-123.60,0.00,9.13,-5.91,0.00
6087,-6.69,-124.02,0.00,9.13,-5.98,0.00
6093,-7.38,-123.66,0.00,9.09,-5.90,0.00
6102,-7.38,-122.11,0.00,8.92,-5.66,0.00
6106,0.56,-118.78,0.00,8.92,-5.34,0.00
6112,7.38,-111.31,0.00,9.43,-5.05,0.00
6120,7.38,-100.27,0.00,9.43,-4.76,0.00
6125,4.88,-89.43,0.00,9.59,-4.48,0.00
6132,12.75,-78.19,0.00,9.37,-4.18,0.00
6140,12.75,-66.29,0.00,9.68,-4.03,0.00
6151,41.81,-56.60,0.00,9.68,-4.21,0.00
6155,48.38,-48.72,0.00,9.96,-4.65,0.00
6159,48.38,-41.86,0.00,9.96,-5.23,0.00
6165,32.81,-35.33,0.00,10.75,-5.62,0.00
6172,10.06,-26.00,0.00,10.41,-5.48,0.00
6179,10.06,-14.81,0.00,10.41,-4.96,0.00
6187,15.25,-6.18,0.00,8.16,-4.37,0.00
6193,8.81,-0.52,0.00,7.51,-3.28,0.00
6201,8.81,3.77,0.00,6.08,-1.31,0.00
6207,-7.88,7.00,0.00,6.08,0.58,0.00
6212,47.81,6.47,0.00,3.57,1.42,0.00
6218,47.81,-0.40,0.00,3.57,1.33,0.00
6225,70.44,-9.42,0.00,2.77,0.66,0.00
6232,57.00,-14.59,0.00,5.96,-1.09,0.00
6241,57.00,-14.17,0.00,1.57,-3.52,0.00
6249,23.44,-12.09,0.00,1.57,-4.78,0.00
6255,-5.31,-10.80,0.00,3.80,-4.54,0.00
6261,-5.31,-7.74,0.00,3.80,-3.77,0.00
6265,-36.19,-2.12,0.00,5.41,-2.95,0.00
6272,-11.94,3.42,0.00,3.92,-2.18,0.00
6278,-11.94,5.03,0.00,3.92,-1.70,0.00
6286,5.44,3.02,0.00,3.86,-1.69,0.00
6293,-12.00,1.65,0.00,3.86,-1.91,0.00
6303,-12.00,3.33,0.00,4.27,-1.99,0.00
6307,-19.88,7.47,0.00,4.27,-1.85,0.00
6312,-15.12,12.23,0.00,4.37,-1.72,0.00
6318,-15.12,15.25,0.00,4.37,-1.73,0.00
6325,-16.75,15.62,0.00,4.33,-1.83,0.00
6332,-22.56,14.70,0.00,4.28,-1.91,0.00
6343,-22.56,14.13,0.00,4.21,-1.88,0.00
6349,-25.06,14.48,0.00,4.21,-1.75,0.00
6353,-25.19,15.78,0.00,4.23,-1.63,0.00
6359,-25.19,17.65,0.00,4.23,-1.56,0.00
6365,-24.31,19.65,0.00,4.34,-1.52,0.00
6372,-24.31,21.80,0.00,4.43,-1.50,0.00
6379,-22.50,23.49,0.00,4.43,-1.49,0.00
6385,-22.38,23.96,0.00,4.43,-1.50,0.00
6392,-24.00,23.31,0.00,4.62,-1.51,0.00
6401,-24.00,22.42,0.00,4.66,-1.49,0.00
6409,-23.88,22.05,0.00,4.66,-1.45,0.00
6412,-25.88,22.77,0.00,4.61,-1.42,0.00
6419,-25.88,24.56,0.00,4.61,-1.41,0.00
6425,-26.69,26.35,0.00,4.60,-1.36,0.00
6433,-22.88,26.99,0.00,4.87,-1.26,0.00
6441,-22.88,26.21,0.00,4.56,-1.22,0.00
6449,-23.62,25.21,0.00,4.56,-1.28,0.00
6454,-30.31,25.57,0.00,4.70,-1.30,0.00
6459,-30.31,27.36,0.00,4.70,-1.16,0.00
6465,-24.62,28.95,0.00,4.87,-1.01,0.00
6472,-24.62,29.19,0.00,4.94,-1.00,0.00
6478,-18.62,28.11,0.00,4.94,-1.08,0.00
6485,-17.12,25.95,0.00,5.04,-1.16,0.00
6493,-17.94,23.82,0.00,4.85,-1.20,0.00
6501,-17.94,22.81,0.00,4.94,-1.19,0.00
6511,-16.62,22.10,0.00,4.94,-1.14,0.00
6512,-16.62,20.59,0.00,5.14,-1.12,0.00
6521,-13.69,18.41,0.00,5.14,-1.13,0.00
6527,-16.06,16.04,0.00,5.20,-1.15,0.00
6533,-2.69,12.45,0.00,4.80,-1.14,0.00
6541,-2.69,6.64,0.00,4.79,-1.04,0.00
6550,1.88,0.82,0.00,4.79,-0.95,0.00
6556,1.31,-2.78,0.00,4.93,-0.95,0.00
6562,1.31,-4.16,0.00,4.93,-1.05,0.00
6566,2.56,-4.01,0.00,5.00,-1.16,0.00
6574,3.06,-3.16,0.00,4.88,-1.19,0.00
6581,3.06,-2.23,0.00,4.88,-1.16,0.00
6586,3.75,-1.43,0.00,4.74,-1.14,0.00
6593,3.38,-0.43,0.00,5.01,-1.14,0.00
6608,3.38,0.73,0.00,4.86,-1.17,0.00
6616,3.88,1.84,0.00,4.86,-1.24,0.00
6639,3.88,2.93,0.00,4.85,-1.31,0.00
6645,3.69,3.86,0.00,4.85,-1.32,0.00
6646,2.31,4.46,0.00,4.89,-1.30,0.00
6647,2.56,4.52,0.00,4.74,-1.30,0.00
6648,2.56,4.09,0.00,4.68,-1.31,0.00
6737,1.69,3.43,0.00,4.68,-1.28,0.00
6786,1.44,2.55,0.00,4.94,-1.23,0.00
6787,1.44,1.63,0.00,4.94,-1.21,0.00
6788,0.44,0.78,0.00,4.86,-1.24,0.00
6788,-1.88,-0.39,0.00,4.98,-1.10,0.00
6789,-1.88,-1.92,0.00,4.98,-0.82,0.00
6790,-4.88,-3.55,0.00,4.74,-0.81,0.00
6791,-5.94,-5.32,0.00,4.79,-1.04,0.00
6792,-5.94,-6.85,0.00,4.79,-1.20,0.00
6792,-6.62,-7.70,0.00,4.87,-1.23,0.00
6793,-6.62,-8.00,0.00,4.87,-1.15,0.00
6793,-6.75,-8.07,0.00,4.73,-1.08,0.00
6794,-6.31,-8.03,0.00,4.90,-1.09,0.00
6795,-6.12,-7.86,0.00,4.81,-1.12,0.00
6796,-6.12,-7.66,0.00,4.81,-1.10,0.00
6797,-5.44,-7.45,0.00,4.78,-1.06,0.00
6798,-5.12,-6.99,0.00,4.77,-1.05,0.00
6799,-5.12,-6.33,0.00,4.77,-1.05,0.00
6800,-5.31,-5.61,0.00,4.72,-1.06,0.00
6801,-5.06,-4.59,0.00,4.70,-1.11,0.00
6802,-5.06,-3.32,0.00,4.70,-1.19,0.00
6803,-4.44,-2.29,0.00,4.68,-1.23,0.00
6804,-3.69,-1.52,0.00,4.65,-1.20,0.00
6808,-3.19,-0.01,0.00,4.86,-1.16,0.00
6826,-3.19,0.97,0.00,4.86,-1.12,0.00
6847,-1.38,2.02,0.00,4.61,-1.07,0.00
6848,-3.06,3.19,0.00,5.02,-1.06,0.00
6854,-0.62,4.04,0.00,4.83,-1.06,0.00
6854,-0.62,3.96,0.00,4.83,-1.05,0.00
6855,0.44,3.13,0.00,4.87,-1.04,0.00
6856,2.50,2.09,0.00,4.78,-1.04,0.00
6861,2.50,1.42,0.00,4.78,-1.07,0.00
6868,3.88,1.41,0.00,4.91,-1.07,0.00
6875,3.88,1.92,0.00,4.82,-1.08,0.00
6879,4.38,2.70,0.00,4.82,-1.15,0.00
6885,2.81,3.78,0.00,4.93,-1.21,0.00
6894,2.81,4.98,0.00,4.85,-1.20,0.00
6906,8.25,4.37,0.00,4.78,-1.13,0.00
6912,8.25,1.54,0.00,4.78,-1.14,0.00
6922,9.12,-1.47,0.00,4.75,-1.13,0.00
6933,10.25,-3.85,0.00,4.78,-1.12,0.00
6942,10.25,-5.51,0.00,4.85,-1.11,0.00
6948,12.81,-6.52,0.00,4.85,-1.08,0.00
6949,12.94,-7.42,0.00,4.87,-1.06,0.00
6963,12.94,-8.35,0.00,4.84,-1.11,0.00
6969,15.69,-9.25,0.00,4.84,-1.19,0.00
6970,15.50,-10.45,0.00,4.79,-1.21,0.00
6980,15.50,-11.83,0.00,4.79,-1.17,0.00
6988,15.69,-12.85,0.00,4.68,-1.16,0.00
6990,17.69,-13.57,0.00,4.85,-1.22,0.00
6994,17.69,-14.34,0.00,4.61,-1.24,0.00
7006,15.81,-14.96,0.00,4.73,-1.12,0.00
7013,15.81,-14.65,0.00,4.73,-0.98,0.00
7019,13.62,-14.16,0.00,4.63,-0.74,0.00
7025,11.12,-13.29,0.00,4.72,-0.77,0.00
7032,11.12,-12.15,0.00,4.72,-1.05,0.00
7039,9.75,-11.13,0.00,4.57,-1.27,0.00
7045,7.25,-10.19,0.00,4.52,-1.33,0.00
7054,7.25,-9.32,0.00,4.71,-1.32,0.00
7060,5.00,-8.51,0.00,4.71,-1.33,0.00
7065,4.38,-7.51,0.00,4.66,-1.35,0.00
7074,4.38,-6.37,0.00,4.66,-1.34,0.00
7078,2.00,-5.44,0.00,4.58,-1.29,0.00
7085,0.88,-4.57,0.00,4.63,-1.25,0.00
7093,0.88,-3.66,0.00,4.63,-1.25,0.00
7098,-0.19,-2.87,0.00,4.58,-1.25,0.00
7106,-1.88,-1.99,0.00,4.72,-1.24,0.00
7113,-1.88,-0.89,0.00,4.72,-1.24,0.00
7118,-2.25,-0.00,0.00,4.57,-1.25,0.00
7125,-3.19,0.57,0.00,4.63,-1.26,0.00
7132,-3.19,1.10,0.00,4.63,-1.23,0.00
7138,-3.06,1.55,0.00,4.59,-1.23,0.00
7146,-2.81,1.82,0.00,4.66,-1.26,0.00
7155,-2.81,1.98,0.00,4.55,-1.26,0.00
7159,-3.88,2.14,0.00,4.55,-1.22,0.00
7165,-3.19,2.42,0.00,4.73,-1.19,0.00
7172,-3.19,2.79,0.00,4.73,-1.20,0.00
7178,-4.19,3.13,0.00,4.57,-1.19,0.00
7185,-4.31,3.44,0.00,4.58,-1.15,0.00
7193,-4.31,3.59,0.00,4.58,-1.14,0.00
7201,-3.50,3.72,0.00,4.80,-1.18,0.00
7206,-4.81,4.05,0.00,4.82,-1.24,0.00
7213,-4.81,4.46,0.00,4.82,-1.27,0.00
7218,-4.56,4.75,0.00,4.61,-1.25,0.00
7225,-5.50,4.93,0.00,4.43,-1.18,0.00
7232,-5.50,5.00,0.00,4.43,-1.07,0.00
7238,-4.31,4.98,0.00,4.46,-1.08,0.00
7247,-7.81,5.45,0.00,4.82,-1.18,0.00
7254,-7.81,6.92,0.00,4.21,-1.13,0.00
7258,-2.94,7.34,0.00,4.21,-1.02,0.00
7267,-2.94,4.86,0.00,4.74,-1.02,0.00
7272,-1.19,1.47,0.00,4.74,-1.14,0.00
7278,-2.31,-0.41,0.00,4.48,-1.20,0.00
7286,-1.44,-0.44,0.00,4.53,-1.11,0.00
7294,-1.44,0.55,0.00,4.53,-0.98,0.00
7298,-1.12,1.47,0.00,4.56,-0.90,0.00
7306,-0.19,2.08,0.00,4.53,-0.82,0.00
7314,-0.19,2.62,0.00,4.53,-0.76,0.00
7319,1.12,3.24,0.00,4.80,-0.78,0.00
7326,0.31,4.19,0.00,4.37,-0.89,0.00
7332,0.31,5.36,0.00,4.37,-0.94,0.00
7339,-0.56,6.45,0.00,4.44,-0.96,0.00
7347,-1.00,7.89,0.00,4.60,-1.00,0.00
7355,-1.00,9.92,0.00,4.65,-1.03,0.00
7360,-2.12,11.99,0.00,4.65,-1.04,0.00
7366,-2.12,13.79,0.00,4.53,-1.04,0.00
7372,-2.38,15.29,0.00,4.53,-1.01,0.00
7381,-2.62,16.70,0.00,4.60,-0.97,0.00
7386,-2.62,17.96,0.00,4.67,-0.98,0.00
7396,-2.50,18.94,0.00,4.67,-1.10,0.00
7399,-2.06,20.11,0.00,4.60,-1.22,0.00
7407,-0.81,21.77,0.00,3.78,-1.25,0.00
7415,-0.81,23.55,0.00,3.78,-1.21,0.00
7421,0.81,25.45,0.00,4.40,-1.11,0.00
7426,0.81,27.81,0.00,3.52,-0.97,0.00
7432,1.81,30.91,0.00,3.52,-0.97,0.00
7439,9.19,35.93,0.00,5.52,-1.14,0.00
7449,7.62,42.63,0.00,4.67,-1.38,0.00
7455,7.62,48.39,0.00,4.61,-1.49,0.00
7459,16.06,52.49,0.00,4.61,-1.34,0.00
7466,12.12,56.70,0.00,5.14,-1.16,0.00
7472,12.12,61.00,0.00,5.14,-1.18,0.00
7479,16.81,64.16,0.00,5.18,-1.30,0.00
7487,15.06,66.19,0.00,4.98,-1.40,0.00
7495,15.06,67.32,0.00,4.98,-1.42,0.00
7499,11.19,67.63,0.00,4.95,-1.35,0.00
7507,19.06,68.13,0.00,4.94,-1.25,0.00
7515,19.06,69.79,0.00,4.94,-1.20,0.00
7519,25.19,72.43,0.00,5.09,-1.23,0.00
7526,25.19,75.58,0.00,7.08,-1.36,0.00
7535,28.75,79.19,0.00,7.08,-1.59,0.00
7539,33.69,83.94,0.00,5.00,-1.73,0.00
7547,19.38,89.33,0.00,6.29,-1.72,0.00
7560,12.69,96.37,0.00,5.83,-1.49,0.00
7567,17.38,99.24,0.00,6.88,-1.46,0.00
7574,17.38,102.88,0.00,6.88,-1.69,0.00
7579,28.00,108.16,0.00,6.86,-1.93,0.00
7587,28.00,116.15,0.00,6.72,-1.91,0.00
7595,34.06,126.02,0.00,6.72,-1.71,0.00
7601,37.94,138.18,0.00,7.13,-1.55,0.00
7607,39.69,151.64,0.00,7.29,-1.48,0.00
7614,39.69,162.75,0.00,7.29,-1.43,0.00
7619,43.56,169.81,0.00,7.63,-1.40,0.00
7626,43.56,173.86,0.00,7.63,-1.48,0.00
7636,53.00,176.04,0.00,7.34,-1.58,0.00
7639,57.69,177.12,0.00,7.65,-1.64,0.00
7647,59.44,178.17,0.00,7.50,-1.66,0.00
7659,59.75,180.77,0.00,7.58,-1.62,0.00
7667,59.75,181.38,0.00,7.45,-1.69,0.00
7674,64.19,181.57,0.00,7.45,-1.87,0.00
7679,68.31,181.88,0.00,8.35,-2.00,0.00
7688,77.81,182.92,0.00,8.34,-1.96,0.00
7694,77.81,184.44,0.00,8.34,-1.83,0.00
7699,91.88,185.89,0.00,7.59,-1.84,0.00
7708,96.94,187.41,0.00,8.33,-1.93,0.00
7714,96.94,188.90,0.00,8.33,-1.76,0.00
7719,98.44,188.19,0.00,11.32,-2.09,0.00
7728,98.44,183.80,0.00,11.32,-3.64,0.00
7735,66.50,171.02,0.00,14.23,-5.35,0.00
7739,-14.81,135.58,0.00,12.36,-6.12,0.00
7748,-83.12,72.81,0.00,7.01,-5.44,0.00
7755,-83.12,4.72,0.00,7.01,-3.65,0.00
7759,-109.06,-45.02,0.00,2.00,-1.58,0.00
7767,-109.06,-74.20,0.00,1.84,0.48,0.00
7772,-88.94,-89.18,0.00,1.84,2.00,0.00
7779,-62.44,-96.25,0.00,2.65,2.54,0.00
7787,-62.44,-99.97,0.00,3.27,2.35,0.00
7793,-33.00,-99.86,0.00,3.27,1.89,0.00
7799,-12.56,-95.12,0.00,5.21,1.34,0.00
7808,-7.44,-89.05,0.00,6.01,0.66,0.00
7813,-7.44,-85.54,0.00,6.01,0.13,0.00
7819,-4.25,-86.73,0.00,5.61,-0.08,0.00
7827,-4.25,-92.72,0.00,5.61,-0.12,0.00
7833,-12.56,-99.73,0.00,6.18,-0.10,0.00
7842,-25.44,-105.33,0.00,7.05,-0.12,0.00
7848,-29.06,-110.34,0.00,7.20,-0.34,0.00
7854,-29.06,-114.70,0.00,7.20,-0.67,0.00
7861,-35.19,-117.94,0.00,7.22,-0.92,0.00
7868,-35.19,-120.42,0.00,8.49,-1.09,0.00
7873,-38.50,-121.44,0.00,8.49,-1.24,0.00
7879,-39.50,-119.38,0.00,6.91,-1.39,0.00
7886,-39.50,-114.86,0.00,6.91,-1.52,0.00
7892,-39.69,-112.50,0.00,6.31,-1.69,0.00
7899,-40.06,-114.36,0.00,6.28,-2.04,0.00
7909,-43.88,-115.46,0.00,6.53,-2.66,0.00
7912,-43.88,-113.05,0.00,6.53,-3.29,0.00
7919,-48.69,-109.53,0.00,6.89,-3.66,0.00
7926,-48.69,-106.76,0.00,6.89,-3.77,0.00
7932,-44.94,-104.94,0.00,6.97,-3.76,0.00
7939,-47.94,-103.70,0.00,7.14,-3.71,0.00
7948,-43.12,-102.56,0.00,7.40,-3.73,0.00
7953,-43.12,-101.24,0.00,7.40,-3.88,0.00
7960,-37.69,-99.21,0.00,8.06,-4.08,0.00
7970,-37.69,-96.07,0.00,8.14,-4.26,0.00
7975,-5.25,-82.36,0.00,8.14,-4.33,0.00
7981,-37.44,-60.04,0.00,8.34,-4.27,0.00
7987,-37.44,-54.15,0.00,8.34,-4.14,0.00
7992,-36.06,-65.80,0.00,7.97,-3.96,0.00
8000,-27.81,-77.79,0.00,8.22,-3.72,0.00
8012,-29.62,-84.75,0.00,8.24,-3.50,0.00
8013,-29.62,-87.26,0.00,8.24,-3.33,0.00
8020,-29.19,-87.85,0.00,8.33,-3.23,0.00
8026,-29.19,-88.46,0.00,8.33,-3.22,0.00
8032,-20.44,-89.48,0.00,8.49,-3.29,0.00
8040,-19.31,-90.80,0.00,8.55,-3.43,0.00
8050,-19.31,-92.18,0.00,8.54,-3.56,0.00
8053,-18.38,-93.14,0.00,8.54,-3.62,0.00
8060,-17.75,-93.57,0.00,8.60,-3.66,0.00
8068,-17.75,-93.64,0.00,8.17,-3.73,0.00
8072,-18.25,-93.41,0.00,8.17,-3.82,0.00
8079,-19.94,-92.63,0.00,8.13,-3.86,0.00
8087,-19.94,-91.31,0.00,8.13,-3.85,0.00
8092,-22.00,-89.56,0.00,8.26,-3.81,0.00
8100,-22.25,-86.83,0.00,8.37,-3.73,0.00
8113,-20.00,-80.49,0.00,8.23,-3.48,0.00
8120,-16.88,-77.78,0.00,8.15,-3.38,0.00
8126,-16.88,-75.15,0.00,8.15,-3.33,0.00
8132,-12.69,-73.01,0.00,7.89,-3.30,0.00
8141,-8.38,-70.98,0.00,7.65,-3.28,0.00
8153,-4.94,-67.23,0.00,7.75,-3.56,0.00
8160,-2.75,-65.17,0.00,7.70,-3.76,0.00
8172,-4.38,-60.63,0.00,7.56,-3.81,0.00
8179,-4.38,-59.47,0.00,7.91,-3.68,0.00
8186,-3.38,-58.85,0.00,7.91,-3.45,0.00
8192,14.56,-58.50,0.00,6.94,-3.47,0.00
8200,35.38,-57.91,0.00,6.54,-4.09,0.00
8209,35.38,-56.58,0.00,7.46,-4.94,0.00
8213,38.06,-54.14,0.00,7.46,-5.45,0.00
8220,41.88,-47.73,0.00,9.02,-5.73,0.00
8226,41.88,-36.54,0.00,9.02,-6.11,0.00
8232,43.69,-24.34,0.00,11.70,-6.17,0.00
8239,-18.50,-13.75,0.00,4.17,-4.79,0.00
8254,-18.50,-7.09,0.00,1.96,-2.06,0.00
8256,-12.81,-7.44,0.00,1.96,0.18,0.00
8261,6.38,-13.52,0.00,3.74,0.76,0.00
8267,6.38,-18.61,0.00,3.74,0.06,0.00
8272,12.50,-19.33,0.00,3.29,-1.10,0.00
8281,12.50,-17.32,0.00,3.78,-2.14,0.00
8286,10.88,-14.16,0.00,3.78,-2.62,0.00
8292,-6.75,-9.52,0.00,3.91,-2.50,0.00
8302,-6.88,-3.40,0.00,4.09,-2.08,0.00
8312,-5.31,4.86,0.00,4.39,-1.49,0.00
8322,-7.88,6.15,0.00,4.65,-1.48,0.00
8325,-7.88,6.66,0.00,4.65,-1.57,0.00
8332,-8.19,6.94,0.00,4.16,-1.65,0.00
8340,-8.19,7.32,0.00,4.21,-1.71,0.00
8350,-10.88,7.87,0.00,4.21,-1.78,0.00
8354,-15.69,9.00,0.00,4.34,-1.80,0.00
8363,-19.62,10.99,0.00,4.39,-1.67,0.00
8367,-19.62,13.11,0.00,4.39,-1.48,0.00
8373,-20.44,14.80,0.00,4.07,-1.37,0.00
8380,-19.94,16.51,0.00,4.57,-1.38,0.00
8388,-19.94,18.21,0.00,4.57,-1.40,0.00
8393,-20.50,19.08,0.00,4.37,-1.40,0.00
8401,-19.94,18.75,0.00,4.49,-1.39,0.00
8413,-22.31,17.58,0.00,4.84,-1.37,0.00
8421,-22.31,18.30,0.00,4.85,-1.37,0.00
8425,-25.62,19.88,0.00,4.85,-1.28,0.00
8432,-23.50,21.98,0.00,4.69,-1.17,0.00
8439,-23.50,23.61,0.00,4.61,-1.10,0.00
8447,-19.25,24.27,0.00,4.61,-0.92,0.00
8452,-17.62,23.95,0.00,4.64,-0.66,0.00
8461,-17.38,22.58,0.00,4.86,-0.68,0.00
8465,-17.38,20.90,0.00,4.86,-0.95,0.00
8472,-16.69,19.74,0.00,4.97,-1.13,0.00
8479,-16.69,19.15,0.00,4.97,-1.16,0.00
8485,-16.31,19.04,0.00,4.79,-1.11,0.00
8492,-16.75,19.38,0.00,4.91,-1.05,0.00
8501,-16.75,19.90,0.00,5.17,-1.07,0.00
8506,-13.50,19.89,0.00,5.17,-1.14,0.00
8514,-10.81,18.70,0.00,4.54,-1.23,0.00
8522,-10.81,16.86,0.00,4.97,-1.28,0.00
8525,-12.38,15.40,0.00,4.97,-1.25,0.00
8532,-11.00,14.25,0.00,5.05,-1.18,0.00
8540,-7.50,11.91,0.00,4.76,-1.14,0.00
8548,-7.50,8.00,0.00,4.76,-1.16,0.00
8552,-0.19,3.52,0.00,4.88,-1.17,0.00
8561,-1.69,-0.76,0.00,4.63,-1.13,0.00
8565,-1.69,-3.49,0.00,4.63,-1.08,0.00
8572,-0.75,-4.21,0.00,4.69,-1.07,0.00
8580,-0.75,-3.86,0.00,4.83,-1.10,0.00
8586,-0.38,-3.13,0.00,4.83,-1.14,0.00
8592,0.00,-2.27,0.00,4.82,-1.17,0.00
8603,0.00,-1.52,0.00,4.84,-1.17,0.00
8606,-0.25,-1.09,0.00,4.84,-1.13,0.00
8618,-0.19,-0.89,0.00,4.80,-1.09,0.00
8624,-0.19,-0.82,0.00,4.65,-1.09,0.00
8630,0.38,-0.76,0.00,4.65,-1.11,0.00
8642,-0.69,-0.62,0.00,4.79,-1.12,0.00
8659,-0.69,-0.50,0.00,4.78,-1.13,0.00
8660,-1.00,-0.39,0.00,4.78,-1.17,0.00
8669,-1.50,-0.19,0.00,4.61,-1.18,0.00
8670,-2.00,-0.03,0.00,4.86,-1.16,0.00
8678,-2.00,-0.07,0.00,4.86,-1.18,0.00
8707,-2.38,-0.30,0.00,4.57,-1.21,0.00
8708,-2.38,-0.71,0.00,4.74,-1.18,0.00
8724,-3.38,-1.16,0.00,4.74,-1.14,0.00
8725,-3.38,-1.50,0.00,4.76,-1.13,0.00
8727,-3.38,-1.56,0.00,4.86,-1.12,0.00
8727,-4.12,-1.49,0.00,4.86,-1.07,0.00
8732,-4.88,-1.40,0.00,4.81,-1.01,0.00
8732,-4.88,-1.20,0.00,4.80,-1.00,0.00
8733,-5.50,-1.03,0.00,4.80,-1.03,0.00
8736,-5.31,-1.12,0.00,4.78,-1.08,0.00
8753,-5.31,-1.43,0.00,4.72,-1.11,0.00
8775,-4.56,-1.78,0.00,4.72,-1.15,0.00
8776,-3.56,-2.18,0.00,4.73,-1.16,0.00
8783,-4.00,-2.56,0.00,4.87,-1.00,0.00
8784,-3.44,-2.47,0.00,4.72,-0.94,0.00
8807,-3.44,-2.31,0.00,4.89,-0.92,0.00
8808,-3.25,-2.10,0.00,4.89,-0.93,0.00
8819,-2.62,-1.73,0.00,4.77,-0.98,0.00
8820,-2.62,-1.20,0.00,4.63,-1.06,0.00
8821,-1.56,-0.76,0.00,4.63,-1.10,0.00
8830,-1.38,-0.50,0.00,4.75,-1.10,0.00
8830,-1.38,-0.36,0.00,4.75,-1.12,0.00
8831,0.44,-0.24,0.00,4.74,-1.13,0.00
8837,2.19,-0.03,0.00,4.80,-1.11,0.00
8845,2.19,0.28,0.00,4.80,-1.08,0.00
8846,2.75,0.62,0.00,4.64,-1.04,0.00
8854,4.12,1.00,0.00,4.82,-1.02,0.00
8862,4.12,1.37,0.00,4.93,-1.02,0.00
8865,4.06,1.80,0.00,4.93,-1.01,0.00
8875,3.25,2.50,0.00,4.93,-1.01,0.00
8879,3.25,3.23,0.00,4.93,-1.03,0.00
8885,3.88,2.65,0.00,4.58,-1.02,0.00
8892,7.38,0.15,0.00,4.79,-0.97,0.00
8900,7.38,-2.36,0.00,4.79,-0.99,0.00
8905,6.62,-3.24,0.00,4.66,-1.05,0.00
8916,5.44,-2.71,0.00,4.82,-1.02,0.00
8920,5.44,-1.67,0.00,4.82,-0.93,0.00
8925,6.31,-1.10,0.00,4.81,-0.90,0.00
8932,6.31,-1.28,0.00,4.84,-0.99,0.00
8938,8.56,-2.08,0.00,4.84,-1.11,0.00
8945,9.25,-3.47,0.00,4.44,-1.13,0.00
8954,8.56,-5.11,0.00,4.64,-1.04,0.00
8961,8.56,-6.46,0.00,4.95,-0.96,0.00
8969,9.56,-7.15,0.00,4.95,-0.93,0.00
8974,9.69,-7.15,0.00,4.65,-0.94,0.00
8979,9.69,-6.79,0.00,4.65,-0.98,0.00
8985,9.75,-6.60,0.00,4.64,-1.01,0.00
8992,9.75,-6.83,0.00,4.88,-1.05,0.00
8999,9.19,-7.22,0.00,4.88,-1.12,0.00
9005,9.31,-7.41,0.00,4.75,-1.20,0.00
9014,8.19,-7.28,0.00,4.75,-1.23,0.00
9018,8.19,-7.01,0.00,4.75,-1.21,0.00
9025,6.12,-6.61,0.00,4.64,-1.19,0.00
9032,6.12,-5.96,0.00,4.62,-1.17,0.00
9038,6.12,-5.35,0.00,4.62,-1.15,0.00
9045,4.50,-4.87,0.00,4.63,-1.12,0.00
9053,4.12,-4.26,0.00,4.70,-1.13,0.00
9061,4.12,-3.59,0.00,4.70,-1.14,0.00
9066,2.56,-3.04,0.00,4.78,-1.15,0.00
9074,0.25,-2.38,0.00,4.69,-1.17,0.00
9079,0.25,-1.50,0.00,4.69,-1.21,0.00
9087,0.25,-0.77,0.00,4.53,-1.20,0.00
9092,0.25,-0.43,0.00,4.82,-1.16,0.00
9100,-1.00,-0.24,0.00,4.82,-1.15,0.00
9105,-1.94,0.16,0.00,4.61,-1.17,0.00
9116,-1.94,0.73,0.00,4.73,-1.18,0.00
9121,-1.94,1.17,0.00,4.73,-1.19,0.00
9126,-3.44,1.48,0.00,4.70,-1.19,0.00
9133,-3.44,1.82,0.00,4.89,-1.20,0.00
9139,-3.44,2.12,0.00,4.89,-1.18,0.00
9146,-3.56,2.30,0.00,4.75,-1.17,0.00
9153,-3.31,2.34,0.00,4.58,-1.17,0.00
9162,-3.31,2.21,0.00,4.58,-1.12,0.00
9167,-3.00,2.00,0.00,4.76,-1.09,0.00
9174,-3.00,1.83,0.00,4.85,-1.14,0.00
9179,-3.38,1.67,0.00,4.85,-1.19,0.00
9186,-1.94,0.99,0.00,4.67,-1.17,0.00
9192,-1.94,-0.49,0.00,4.70,-1.14,0.00
9200,-1.44,-1.90,0.00,4.70,-1.15,0.00
9206,-1.62,-2.39,0.00,4.79,-1.18,0.00
9215,-1.62,-2.06,0.00,4.66,-1.17,0.00
9219,-1.62,-1.46,0.00,4.66,-1.18,0.00
9227,-2.25,-0.98,0.00,4.50,-1.18,0.00
9232,-2.25,-0.64,0.00,4.50,-1.11,0.00
9239,-2.44,-0.31,0.00,4.82,-1.04,0.00
9246,-3.19,0.16,0.00,4.68,-1.02,0.00
9253,-4.38,0.76,0.00,4.81,-1.05,0.00
9260,-4.38,1.47,0.00,4.81,-1.08,0.00
9267,-5.12,2.13,0.00,4.70,-1.10,0.00
9274,-5.12,2.62,0.00,4.79,-1.11,0.00
9281,-5.75,3.00,0.00,4.79,-1.11,0.00
9286,-6.56,3.31,0.00,4.67,-1.11,0.00
9292,-6.56,3.53,0.00,4.63,-1.08,0.00
9299,-7.19,3.66,0.00,4.63,-1.02,0.00
9306,-8.75,3.88,0.00,4.81,-0.97,0.00
9321,-12.44,4.51,0.00,5.03,-0.87,0.00
9328,-6.19,4.56,0.00,4.88,-0.70,0.00
9333,-6.19,4.48,0.00,4.89,-0.76,0.00
9339,-7.94,4.43,0.00,4.89,-0.91,0.00
9346,-9.12,4.34,0.00,4.77,-0.94,0.00
9354,-6.44,4.06,0.00,4.50,-0.96,0.00
9361,-6.44,3.87,0.00,4.50,-1.03,0.00
9367,-4.31,4.05,0.00,5.16,-1.03,0.00
9374,-4.31,4.61,0.00,4.73,-0.93,0.00
9379,-2.88,4.85,0.00,4.73,-0.91,0.00
9386,-4.75,4.06,0.00,4.71,-0.97,0.00
9394,-4.75,2.72,0.00,4.77,-1.00,0.00
9399,-3.62,1.66,0.00,4.77,-1.04,0.00
9406,-3.56,1.16,0.00,4.79,-1.05,0.00
9420,-4.50,0.88,0.00,4.70,-0.86,0.00
9427,-1.94,0.61,0.00,4.65,-0.78,0.00
9433,-1.94,0.46,0.00,4.65,-0.75,0.00
9439,0.38,0.96,0.00,4.55,-0.89,0.00
9446,-3.38,2.15,0.00,4.97,-1.12,0.00
9455,-3.38,2.88,0.00,4.59,-1.15,0.00
9461,-1.12,2.84,0.00,4.59,-1.04,0.00
9469,-1.00,2.70,0.00,5.00,-0.98,0.00
9474,-1.00,2.82,0.00,4.84,-0.95,0.00
9479,-0.06,3.07,0.00,4.84,-0.90,0.00
9486,0.19,3.24,0.00,5.30,-0.91,0.00
9494,0.19,3.27,0.00,4.63,-0.92,0.00
9500,-1.56,3.04,0.00,4.63,-0.78,0.00
9507,0.44,2.71,0.00,4.73,-0.59,0.00
9520,2.06,3.20,0.00,4.72,-0.66,0.00
9529,2.00,3.46,0.00,4.61,-0.78,0.00
9533,2.00,3.35,0.00,4.61,-0.83,0.00
9539,2.88,3.38,0.00,4.67,-0.83,0.00
9546,1.75,4.02,0.00,5.06,-0.86,0.00
9562,2.56,5.41,0.00,4.98,-0.91,0.00
9572,2.12,6.16,0.00,4.83,-0.79,0.00
9581,4.00,6.61,0.00,4.96,-0.72,0.00
9587,5.56,6.94,0.00,4.44,-0.71,0.00
9592,5.56,7.15,0.00,4.44,-0.71,0.00
9599,8.56,7.10,0.00,4.70,-0.74,0.00
9607,6.62,6.65,0.00,4.65,-0.84,0.00
9620,7.31,5.99,0.00,4.60,-0.84,0.00
9628,9.94,7.48,0.00,4.35,-0.73,0.00
9632,9.94,10.12,0.00,4.35,-0.60,0.00
9639,15.38,12.69,0.00,4.51,-0.55,0.00
9646,18.75,14.92,0.00,4.24,-0.61,0.00
9655,18.75,16.70,0.00,4.20,-0.69,0.00
9661,23.12,18.26,0.00,4.20,-0.75,0.00
9668,26.19,20.29,0.00,4.10,-0.81,0.00
9672,26.19,22.35,0.00,4.10,-0.89,0.00
9680,25.56,25.00,0.00,3.76,-0.97,0.00
9686,22.62,31.36,0.00,4.03,-1.03,0.00
9693,22.62,41.10,0.00,4.03,-1.01,0.00
9699,23.19,51.08,0.00,5.60,-1.01,0.00
9706,24.12,60.34,0.00,5.86,-1.11,0.00
9760,32.44,70.43,0.00,5.24,-1.29,0.00
9762,31.06,72.43,0.00,4.01,-1.27,0.00
9763,31.06,74.90,0.00,4.01,-1.01,0.00
9763,22.06,76.08,0.00,5.26,-0.81,0.00
9764,40.69,72.96,0.00,4.42,-0.81,0.00
9765,40.69,66.37,0.00,6.42,-0.98,0.00
9766,57.81,62.86,0.00,6.42,-1.49,0.00
9773,45.31,76.92,0.00,5.13,-1.56,0.00
9780,40.31,86.24,0.00,5.45,-1.04,0.00
9786,34.00,94.83,0.00,5.72,-0.83,0.00
9793,34.00,100.45,0.00,5.72,-1.00,0.00
9799,28.50,103.04,0.00,7.08,-1.27,0.00
9807,62.50,108.98,0.00,6.30,-1.47,0.00
9821,59.88,136.95,0.00,6.22,-1.27,0.00
9828,46.81,154.17,0.00,7.34,-0.99,0.00
9832,46.81,171.20,0.00,7.34,-0.86,0.00
9839,39.75,181.87,0.00,7.21,-0.88,0.00
9847,57.19,184.81,0.00,8.04,-1.02,0.00
9855,57.19,183.79,0.00,7.26,-1.16,0.00
9861,74.50,183.04,0.00,7.26,-1.21,0.00
9875,81.00,190.88,0.00,7.87,-1.22,0.00
9881,81.00,195.61,0.00,7.87,-1.24,0.00
9888,84.25,198.41,0.00,7.14,-1.30,0.00
9892,86.44,200.82,0.00,7.29,-1.41,0.00
9899,88.25,206.06,0.00,8.24,-1.57,0.00
9907,105.25,216.87,0.00,7.40,-1.72,0.00
9915,105.25,230.07,0.00,7.40,-1.68,0.00
9920,125.94,239.16,0.00,7.44,-1.62,0.00
9927,125.94,242.21,0.00,7.78,-1.62,0.00
9933,133.50,241.90,0.00,7.78,-1.50,0.00
9939,156.25,239.85,0.00,8.19,-1.31,0.00
9946,117.56,230.01,0.00,15.55,-1.69,0.00
9956,117.56,209.23,0.00,15.55,-2.90,0.00
9959,58.00,177.52,0.00,15.45,-4.30,0.00
9969,12.31,121.78,0.00,11.70,-5.27,0.00
9973,12.31,47.97,0.00,11.70,-5.60,0.00
9981,-34.69,-16.81,0.00,6.43,-5.17,0.00
9992,-34.69,-63.46,0.00,0.02,-3.54,0.00
9993,-62.19,-91.06,0.00,0.02,-0.97,0.00
10021,-74.94,-101.07,0.00,0.21,0.97,0.00
10023,-64.75,-100.25,0.00,1.23,1.45,0.00
10024,-64.75,-94.76,0.00,1.23,1.06,0.00
10025,-47.94,-88.37,0.00,2.31,0.57,0.00
10026,-47.94,-81.85,0.00,3.38,0.35,0.00
10032,-43.06,-78.57,0.00,3.38,0.40,0.00
10039,-49.88,-82.28,0.00,2.80,0.80,0.00
10046,-49.88,-90.34,0.00,6.64,0.74,0.00
10055,-76.75,-99.59,0.00,6.64,-0.88,0.00
10060,-82.50,-108.66,0.00,5.18,-2.19,0.00
10070,-63.94,-114.26,0.00,5.74,-1.39,0.00
10073,-63.94,-116.50,0.00,5.74,0.08,0.00
10081,-61.69,-118.74,0.00,5.71,0.83,0.00
10086,-61.69,-122.55,0.00,5.71,0.91,0.00
10093,-67.94,-126.53,0.00,6.43,0.72,0.00
10101,-78.62,-129.66,0.00,6.63,0.48,0.00
10107,-67.69,-132.41,0.00,6.65,0.33,0.00
10118,-67.69,-134.37,0.00,6.65,0.35,0.00
10121,-82.38,-135.29,0.00,7.81,0.28,0.00
10125,-82.38,-135.64,0.00,7.81,-0.11,0.00
10134,-51.75,-137.12,0.00,6.24,-0.63,0.00
10140,-56.81,-139.70,0.00,7.07,-1.25,0.00
10145,-56.81,-140.23,0.00,7.07,-1.92,0.00
10155,-53.94,-138.44,0.00,7.68,-2.40,0.00
10159,-58.44,-135.84,0.00,7.53,-2.55,0.00
10167,-58.44,-132.90,0.00,8.13,-2.44,0.00
10173,-57.00,-130.33,0.00,8.13,-2.31,0.00
10183,-53.06,-128.51,0.00,7.67,-2.29,0.00
10186,-53.06,-127.70,0.00,8.30,-2.26,0.00
10194,-56.75,-127.22,0.00,8.30,-2.11,0.00
10199,-5.75,-111.53,0.00,8.46,-1.94,0.00
10207,-53.69,-82.56,0.00,9.03,-1.87,0.00
10218,-53.69,-75.70,0.00,9.03,-1.92,0.00
10222,-49.69,-91.97,0.00,9.11,-1.96,0.00
10226,-49.69,-107.22,0.00,9.11,-1.90,0.00
10233,-46.88,-113.85,0.00,8.89,-1.91,0.00
10239,-51.12,-112.40,0.00,8.77,-2.13,0.00
10247,-51.12,-107.54,0.00,8.93,-2.45,0.00
10254,-47.50,-102.63,0.00,8.93,-2.71,0.00
10260,-44.25,-96.65,0.00,8.91,-2.93,0.00
10269,-44.25,-89.50,0.00,8.70,-3.30,0.00
10274,-45.06,-84.15,0.00,8.70,-3.85,0.00
10282,-47.44,-82.45,0.00,8.58,-4.27,0.00
10286,-47.44,-83.48,0.00,8.58,-4.43,0.00
10292,-46.44,-85.02,0.00,8.51,-4.46,0.00
10299,-45.12,-85.82,0.00,8.28,-4.49,0.00
10308,-45.12,-86.11,0.00,8.21,-4.52,0.00
10326,-42.69,-85.22,0.00,8.38,-4.46,0.00
10327,-42.69,-83.63,0.00,8.44,-4.38,0.00
10333,-41.31,-81.78,0.00,8.44,-4.27,0.00
10339,-39.44,-79.42,0.00,8.75,-4.17,0.00
10348,-39.44,-76.68,0.00,8.51,-4.05,0.00
10354,-35.75,-74.31,0.00,8.51,-3.93,0.00
10359,-28.06,-71.89,0.00,8.35,-3.83,0.00
10374,-21.25,-66.08,0.00,8.34,-3.65,0.00
10386,-17.56,-62.21,0.00,8.20,-3.08,0.00
10387,-17.56,-57.59,0.00,8.20,-2.15,0.00
10393,-14.31,-53.56,0.00,8.13,-2.00,0.00
10400,-10.06,-49.67,0.00,8.11,-2.50,0.00
10408,-10.06,-45.54,0.00,7.91,-2.80,0.00
10424,-8.88,-38.28,0.00,7.46,-2.68,0.00
10427,-8.88,-34.73,0.00,7.46,-2.51,0.00
10433,-7.88,-31.74,0.00,7.24,-2.39,0.00
10439,-8.25,-28.64,0.00,6.89,-2.32,0.00
10447,-8.25,-25.38,0.00,6.89,-2.26,0.00
10453,-8.19,-22.75,0.00,6.62,-2.21,0.00
10459,-6.88,-20.54,0.00,5.97,-2.13,0.00
10474,-6.88,-18.66,0.00,5.64,-2.01,0.00
10475,-5.00,-15.49,0.00,5.64,-1.90,0.00
10480,-0.31,-11.21,0.00,5.47,-1.83,0.00
10485,-0.31,-10.28,0.00,5.47,-1.78,0.00
10492,11.94,-12.63,0.00,5.33,-1.83,0.00
10499,18.75,-14.97,0.00,5.37,-2.21,0.00
10509,18.75,-16.54,0.00,5.08,-2.91,0.00
10514,18.81,-17.55,0.00,5.08,-3.52,0.00
10525,17.44,-18.62,0.00,4.77,-3.76,0.00
10527,17.44,-19.81,0.00,4.77,-3.74,0.00
10533,37.19,-19.82,0.00,4.22,-3.59,0.00
10538,69.25,-16.09,0.00,2.13,-3.51,0.00
10545,69.25,-8.80,0.00,2.13,-3.63,0.00
10553,35.81,-0.41,0.00,6.75,-3.58,0.00
10559,24.38,8.84,0.00,8.08,-2.67,0.00
10591,24.38,17.64,0.00,6.55,-0.93,0.00
10604,30.19,21.47,0.00,6.55,0.77,0.00
10605,30.19,18.75,0.00,5.08,1.37,0.00
10606,33.25,13.94,0.00,5.08,0.71,0.00
10607,38.62,11.15,0.00,4.22,-0.63,0.00
10613,29.12,10.85,0.00,5.45,-2.45,0.00
10613,29.12,12.22,0.00,5.45,-4.27,0.00
10614,-8.31,14.28,0.00,5.31,-5.03,0.00
10621,-17.56,16.10,0.00,4.47,-3.97,0.00
10626,-17.56,16.75,0.00,4.47,-1.71,0.00
10636,-5.81,16.12,0.00,5.35,-0.11,0.00
10650,1.38,14.59,0.00,5.17,-0.24,0.00
10652,1.38,12.77,0.00,5.17,-1.45,0.00
10653,-8.19,11.43,0.00,3.81,-2.49,0.00
10660,-17.94,11.06,0.00,4.87,-2.70,0.00
10668,-17.94,11.70,0.00,4.87,-2.23,0.00
10674,-16.19,12.50,0.00,4.87,-1.71,0.00
10679,-16.19,12.68,0.00,4.05,-1.53,0.00
10687,-11.44,12.44,0.00,4.05,-1.60,0.00
10693,-14.94,12.25,0.00,3.94,-1.72,0.00
10699,-14.94,12.26,0.00,4.25,-1.72,0.00
10708,-18.19,12.23,0.00,4.25,-1.55,0.00
10712,-17.69,11.83,0.00,4.49,-1.38,0.00
10721,-16.56,11.17,0.00,4.37,-1.32,0.00
10726,-16.56,10.54,0.00,4.37,-1.34,0.00
10734,-17.25,10.24,0.00,4.33,-1.37,0.00
10739,-17.25,10.34,0.00,4.54,-1.35,0.00
10745,-18.38,10.79,0.00,4.54,-1.27,0.00
10752,-18.31,11.72,0.00,4.61,-1.21,0.00
10759,-19.25,13.16,0.00,4.35,-1.21,0.00
10768,-19.25,14.72,0.00,4.35,-1.24,0.00
10774,-18.12,15.67,0.00,4.50,-1.21,0.00
10779,-18.12,15.69,0.00,4.55,-1.15,0.00
10790,-15.88,15.16,0.00,4.55,-1.11,0.00
10792,-14.62,14.32,0.00,4.55,-1.10,0.00
10800,-15.06,13.37,0.00,4.68,-1.06,0.00
10807,-15.06,12.68,0.00,4.68,-0.97,0.00
10812,-13.88,12.31,0.00,4.76,-0.91,0.00
10820,-12.75,11.99,0.00,4.70,-0.90,0.00
10826,-12.75,11.64,0.00,4.70,-0.89,0.00
10840,-10.81,10.78,0.00,4.67,-0.89,0.00
10846,-10.81,10.13,0.00,4.67,-0.92,0.00
10852,-9.88,9.57,0.00,4.82,-0.95,0.00
10860,-8.81,9.01,0.00,4.74,-0.97,0.00
10868,-8.81,8.28,0.00,4.74,-0.98,0.00
10875,-7.25,6.98,0.00,4.99,-0.93,0.00
10878,-7.25,4.80,0.00,4.99,-0.80,0.00
10888,2.31,1.61,0.00,4.68,-0.74,0.00
10892,1.38,-2.53,0.00,4.48,-0.87,0.00
10900,0.81,-5.83,0.00,4.50,-1.07,0.00
10907,0.81,-7.05,0.00,4.50,-1.20,0.00
10912,1.38,-6.86,0.00,4.66,-1.25,0.00
10920,1.19,-6.08,0.00,4.63,-1.26,0.00
10926,1.19,-5.28,0.00,4.63,-1.23,0.00
10934,1.81,-4.73,0.00,4.65,-1.16,0.00
10938,1.81,-4.38,0.00,4.65,-1.06,0.00
10945,1.56,-4.22,0.00,4.40,-1.01,0.00
10953,1.44,-4.32,0.00,4.45,-1.04,0.00
10960,0.50,-4.39,0.00,4.71,-1.04,0.00
10973,-0.44,-3.68,0.00,4.62,-1.01,0.00
10980,-0.44,-3.63,0.00,4.62,-1.07,0.00
10988,-2.19,-3.84,0.00,4.53,-1.13,0.00
10992,-3.44,-4.21,0.00,4.45,-1.14,0.00
11000,-4.75,-4.63,0.00,4.45,-1.08,0.00
11008,-4.75,-4.88,0.00,4.45,-0.93,0.00
11012,-4.31,-4.78,0.00,4.67,-0.85,0.00
11020,-5.31,-4.31,0.00,4.44,-0.92,0.00
11026,-5.31,-3.74,0.00,4.44,-0.97,0.00
11032,-4.88,-3.19,0.00,4.60,-0.95,0.00
11041,-4.88,-2.53,0.00,4.45,-0.94,0.00
11046,-4.56,-1.90,0.00,4.45,-0.95,0.00
11052,-5.00,-1.27,0.00,4.42,-0.96,0.00
11060,-5.00,-0.55,0.00,4.55,-0.98,0.00
11067,-5.00,0.23,0.00,4.55,-1.04,0.00
11072,-5.19,1.28,0.00,4.44,-1.11,0.00
11079,-5.19,2.48,0.00,4.44,-1.15,0.00
11087,-6.00,3.63,0.00,4.63,-1.17,0.00
11092,-5.62,5.15,0.00,4.72,-1.16,0.00
11098,-5.62,7.06,0.00,4.72,-1.14,0.00
11107,-6.56,8.49,0.00,5.08,-1.09,0.00
11111,-5.62,8.06,0.00,4.45,-1.00,0.00
11121,-5.62,5.27,0.00,4.64,-0.93,0.00
11127,-3.00,2.21,0.00,4.64,-0.90,0.00
11132,-1.44,0.73,0.00,4.62,-0.88,0.00
11140,-1.44,0.61,0.00,4.62,-0.92,0.00
11146,-0.75,0.95,0.00,4.65,-0.97,0.00
11152,-0.06,1.30,0.00,4.63,-0.86,0.00
11161,-0.06,1.70,0.00,4.62,-0.63,0.00
11168,-0.56,1.94,0.00,4.62,-0.62,0.00
11174,0.56,1.61,0.00,4.48,-0.79,0.00
11180,0.56,0.73,0.00,4.48,-0.88,0.00
11189,2.25,0.03,0.00,4.67,-0.90,0.00
11192,2.75,0.16,0.00,4.67,-0.91,0.00
11199,2.75,0.93,0.00,4.67,-0.93,0.00
11206,3.62,1.81,0.00,4.76,-0.95,0.00
11213,3.50,2.41,0.00,4.19,-0.95,0.00
11221,3.50,2.52,0.00,4.57,-0.89,0.00
11227,3.88,2.16,0.00,4.57,-0.88,0.00
11233,5.12,1.58,0.00,4.64,-0.92,0.00
11242,5.12,1.13,0.00,4.64,-0.96,0.00
11246,5.56,0.65,0.00,4.56,-0.98,0.00
11252,6.19,-0.35,0.00,4.70,-0.97,0.00
11260,6.19,-1.61,0.00,4.52,-0.95,0.00
11266,6.00,-2.53,0.00,4.52,-0.95,0.00
11273,5.31,-2.94,0.00,4.61,-0.96,0.00
11281,5.31,-2.92,0.00,4.61,-0.99,0.00
11288,3.75,-2.59,0.00,4.62,-1.02,0.00
11292,3.88,-2.01,0.00,4.51,-1.02,0.00
11299,3.88,-1.41,0.00,4.51,-1.00,0.00
11305,3.25,-0.99,0.00,4.49,-0.97,0.00
11313,2.62,-0.63,0.00,4.36,-0.97,0.00
11321,2.62,-0.16,0.00,4.70,-0.97,0.00
11328,2.44,0.31,0.00,4.70,-0.96,0.00
11333,2.00,0.71,0.00,4.65,-0.97,0.00
11340,2.00,0.97,0.00,4.65,-1.00,0.00
11346,1.88,1.09,0.00,4.58,-1.01,0.00
11352,0.06,1.15,0.00,4.48,-0.97,0.00
11361,0.06,1.21,0.00,4.37,-0.87,0.00
11366,0.44,1.36,0.00,4.37,-0.82,0.00
11375,-0.62,1.89,0.00,4.58,-0.83,0.00
11380,-0.62,2.77,0.00,4.58,-0.89,0.00
11388,-1.69,3.83,0.00,4.86,-0.94,0.00
11393,-1.69,5.09,0.00,4.68,-0.98,0.00
11399,-2.62,6.24,0.00,4.68,-1.02,0.00
11406,-4.12,7.23,0.00,4.42,-0.99,0.00
11413,-5.12,8.30,0.00,4.68,-0.89,0.00
11423,-5.12,9.41,0.00,4.68,-0.82,0.00
11426,-4.50,10.56,0.00,4.92,-0.83,0.00
11432,-5.56,11.96,0.00,4.71,-0.86,0.00
11440,-5.56,13.23,0.00,4.71,-0.86,0.00
11445,-4.94,14.11,0.00,4.85,-0.87,0.00
11452,-6.44,14.45,0.00,4.73,-0.84,0.00
11460,-6.44,13.86,0.00,4.73,-0.78,0.00
11466,-5.12,12.82,0.00,4.77,-0.74,0.00
11476,-4.12,12.14,0.00,4.84,-0.76,0.00
11480,-4.12,12.03,0.00,4.84,-0.78,0.00
11487,-3.56,12.08,0.00,4.79,-0.78,0.00
11493,-3.56,11.79,0.00,5.05,-0.78,0.00
11499,-2.31,11.36,0.00,5.05,-0.82,0.00
11506,-1.75,11.09,0.00,5.04,-0.85,0.00
11513,-1.62,10.98,0.00,4.89,-0.86,0.00
11521,-1.62,10.98,0.00,4.89,-0.85,0.00
11526,-1.00,11.08,0.00,4.88,-0.82,0.00
11532,-1.00,11.28,0.00,4.74,-0.79,0.00
11540,2.19,11.48,0.00,4.74,-0.83,0.00
11548,7.00,12.03,0.00,5.02,-0.92,0.00
11553,7.00,13.28,0.00,4.89,-0.96,0.00
11561,1.19,14.35,0.00,4.89,-0.94,0.00
11565,3.44,14.49,0.00,5.15,-0.90,0.00
11574,3.38,14.22,0.00,5.02,-0.87,0.00
11580,3.38,13.98,0.00,5.02,-0.85,0.00
11586,4.06,13.82,0.00,5.14,-0.84,0.00
11592,4.06,13.72,0.00,4.73,-0.85,0.00
11599,6.56,13.62,0.00,4.73,-0.84,0.00
11606,9.81,13.56,0.00,4.96,-0.79,0.00
11614,9.38,13.72,0.00,5.26,-0.75,0.00
11621,9.38,12.33,0.00,5.26,-0.78,0.00
11628,11.56,9.10,0.00,4.92,-0.89,0.00
11633,11.56,7.76,0.00,5.21,-1.02,0.00
11640,9.38,8.73,0.00,5.21,-1.09,0.00
11646,6.19,9.78,0.00,5.34,-1.03,0.00
11653,6.19,10.66,0.00,5.03,-0.91,0.00
11661,10.12,10.97,0.00,5.03,-0.88,0.00
11665,6.75,10.19,0.00,4.86,-0.91,0.00
11674,5.44,9.39,0.00,5.11,-0.85,0.00
11680,5.44,9.74,0.00,5.11,-0.75,0.00
11687,5.50,10.60,0.00,4.91,-0.69,0.00
11692,5.50,11.00,0.00,4.78,-0.71,0.00
11699,11.88,10.87,0.00,4.78,-0.82,0.00
11706,10.25,11.06,0.00,4.98,-0.92,0.00
11713,9.62,13.10,0.00,5.00,-0.96,0.00
11722,9.62,16.72,0.00,5.00,-0.95,0.00
11726,7.50,20.57,0.00,5.41,-0.91,0.00
11732,7.50,24.20,0.00,4.74,-0.87,0.00
11741,13.19,26.42,0.00,4.74,-0.85,0.00
11747,18.25,26.88,0.00,5.23,-0.88,0.00
11752,18.25,27.15,0.00,5.09,-0.98,0.00
11760,17.94,28.00,0.00,5.09,-1.09,0.00
11766,18.06,29.53,0.00,5.16,-1.16,0.00
11774,17.00,32.02,0.00,5.20,-1.19,0.00
11781,17.00,34.99,0.00,5.20,-1.18,0.00
11786,16.50,37.80,0.00,5.34,-1.17,0.00
11792,16.50,40.39,0.00,5.34,-1.18,0.00
11799,17.44,42.56,0.00,4.85,-1.18,0.00
11806,14.94,43.73,0.00,6.00,-1.18,0.00
11814,15.06,45.29,0.00,5.61,-1.20,0.00
11826,13.31,52.77,0.00,2.55,-1.12,0.00
11833,13.31,50.83,0.00,6.35,-1.07,0.00
11841,1.56,44.29,0.00,6.35,-1.14,0.00
11846,28.06,36.93,0.00,7.00,-1.29,0.00
11855,28.06,34.73,0.00,5.09,-1.43,0.00
11868,37.62,38.16,0.00,5.09,-1.57,0.00
11870,15.25,43.07,0.00,4.92,-1.61,0.00
11876,15.31,47.09,0.00,6.02,-1.50,0.00
11883,15.31,50.44,0.00,6.02,-1.34,0.00
11887,15.94,52.93,0.00,5.44,-1.19,0.00
11895,15.94,53.88,0.00,7.52,-1.20,0.00
11901,16.62,53.82,0.00,7.52,-1.47,0.00
11906,36.94,56.01,0.00,5.04,-1.65,0.00
11915,36.94,62.99,0.00,5.78,-1.38,0.00
11924,20.88,70.04,0.00,5.78,-0.98,0.00
11929,-9.25,71.20,0.00,7.10,-0.83,0.00
11938,-9.25,66.87,0.00,6.55,-1.08,0.00
11945,40.50,62.87,0.00,6.55,-1.57,0.00
11949,6.69,62.37,0.00,6.70,-1.83,0.00
11959,6.69,62.71,0.00,8.54,-1.80,0.00
11972,30.88,72.53,0.00,7.72,-2.10,0.00
11980,30.88,87.61,0.00,5.75,-1.95,0.00
11989,36.06,103.67,0.00,5.75,-1.33,0.00
11995,34.38,119.71,0.00,6.81,-0.93,0.00
12000,34.38,134.75,0.00,6.89,-1.19,0.00
12023,38.12,144.74,0.00,6.89,-1.58,0.00
12024,31.12,149.98,0.00,7.11,-1.80,0.00
12033,31.12,153.09,0.00,7.33,-2.01,0.00
12034,30.88,155.87,0.00,7.33,-2.19,0.00
12041,28.12,160.67,0.00,7.54,-2.21,0.00
12042,28.12,167.45,0.00,7.54,-2.09,0.00
12043,15.62,174.14,0.00,7.64,-1.92,0.00
12046,3.69,180.90,0.00,7.67,-1.74,0.00
12057,3.69,187.37,0.00,7.67,-1.57,0.00
12060,-0.12,192.14,0.00,7.53,-1.48,0.00
12066,-1.12,196.09,0.00,7.29,-1.47,0.00
12075,-1.12,199.93,0.00,8.71,-1.54,0.00
12080,-0.19,204.93,0.00,8.71,-1.71,0.00
12086,16.31,212.07,0.00,8.41,-1.81,0.00
12094,16.31,217.84,0.00,7.19,-1.54,0.00
12099,21.06,220.89,0.00,7.19,-0.89,0.00
12106,31.44,196.84,0.00,8.71,-0.40,0.00
12115,31.44,149.22,0.00,8.45,-0.39,0.00
12120,68.50,142.99,0.00,8.45,-0.61,0.00
12126,78.56,180.79,0.00,8.83,-0.79,0.00
12134,78.56,215.71,0.00,8.83,-0.87,0.00
12140,94.94,233.07,0.00,8.57,-0.71,0.00
12148,81.12,226.28,0.00,18.60,-0.89,0.00
12154,81.12,195.20,0.00,18.60,-2.20,0.00
12160,5.75,144.37,0.00,9.81,-3.95,0.00
12168,-81.62,75.85,0.00,4.21,-4.74,0.00
12180,-81.62,-0.57,0.00,3.75,-4.05,0.00
12181,-109.56,-77.28,0.00,3.75,-2.85,0.00
12186,-111.25,-138.96,0.00,2.80,-1.74,0.00
12194,-111.25,-171.60,0.00,2.38,-0.20,0.00
12199,-12.25,-161.10,0.00,2.38,1.44,0.00
12206,-86.62,-119.80,0.00,3.40,2.48,0.00
12215,-86.62,-103.36,0.00,4.52,2.95,0.00
12223,-41.31,-119.21,0.00,4.52,3.09,0.00
12227,-5.38,-137.72,0.00,6.78,2.87,0.00
12234,-5.38,-149.77,0.00,6.78,2.30,0.00
12239,14.81,-155.99,0.00,7.73,1.64,0.00
12245,14.81,-159.49,0.00,8.85,0.96,0.00
12254,17.94,-162.31,0.00,8.85,0.30,0.00
12260,0.19,-166.70,0.00,8.30,0.00,0.00
12266,-18.12,-173.51,0.00,8.33,0.22,0.00
12279,-16.62,-182.38,0.00,7.98,1.23,0.00
12285,-16.62,-181.03,0.00,7.86,1.50,0.00
12294,-17.00,-177.17,0.00,7.86,1.52,0.00
12298,-9.75,-170.48,0.00,8.07,1.23,0.00
12306,3.75,-160.62,0.00,7.92,0.48,0.00
12315,3.75,-150.48,0.00,7.69,-0.53,0.00
12318,-3.94,-142.85,0.00,7.69,-1.43,0.00
12326,-16.12,-136.54,0.00,7.79,-1.99,0.00
12336,-16.12,-130.44,0.00,7.79,-2.31,0.00
12338,-27.75,-125.15,0.00,7.36,-2.53,0.00
12345,-35.62,-120.78,0.00,7.14,-2.82,0.00
12352,-35.62,-118.29,0.00,7.14,-3.19,0.00
12358,-41.50,-117.87,0.00,7.73,-3.35,0.00
12367,-52.12,-118.43,0.00,8.77,-3.15,0.00
12375,-52.12,-119.24,0.00,9.61,-2.87,0.00
12379,-50.88,-120.10,0.00,9.61,-2.74,0.00
12386,-50.88,-121.12,0.00,10.15,-2.74,0.00
12395,-56.00,-121.64,0.00,10.15,-2.79,0.00
12398,-59.00,-120.43,0.00,10.61,-2.84,0.00
12406,-60.81,-117.25,0.00,10.23,-2.88,0.00
12414,-60.81,-113.42,0.00,10.23,-2.84,0.00
12418,-61.31,-110.79,0.00,8.96,-2.76,0.00
12427,-57.88,-110.11,0.00,8.43,-2.69,0.00
12435,-57.88,-110.85,0.00,8.43,-2.63,0.00
12438,-50.38,-110.84,0.00,7.96,-2.60,0.00
12446,-45.56,-107.57,0.00,7.80,-2.57,0.00
12452,-45.56,-101.93,0.00,7.80,-2.57,0.00
12458,-40.38,-95.64,0.00,7.32,-2.55,0.00
12466,-32.38,-86.58,0.00,7.42,-2.49,0.00
12477,-32.38,-74.84,0.00,6.58,-2.35,0.00
12479,-33.75,-67.61,0.00,6.58,-2.15,0.00
12486,-33.75,-69.15,0.00,6.32,-1.96,0.00
12495,-34.00,-75.87,0.00,6.32,-1.81,0.00
12499,-29.19,-83.56,0.00,6.56,-1.73,0.00
12506,-7.38,-78.54,0.00,6.77,-1.74,0.00
12513,-23.38,-60.45,0.00,6.77,-1.79,0.00
12518,-19.69,-54.71,0.00,6.63,-1.87,0.00
12527,-20.38,-62.61,0.00,6.66,-1.99,0.00
12535,-20.38,-68.92,0.00,6.66,-2.11,0.00
12538,-23.19,-70.93,0.00,6.54,-2.11,0.00
12548,-24.31,-69.68,0.00,6.51,-1.97,0.00
12552,-24.31,-67.16,0.00,6.51,-1.78,0.00
12558,-24.62,-64.91,0.00,6.45,-1.66,0.00
12567,-21.94,-62.79,0.00,6.28,-1.62,0.00
12579,-20.62,-58.50,0.00,5.93,-1.74,0.00
12586,-20.62,-56.55,0.00,5.79,-1.98,0.00
12594,-18.94,-54.64,0.00,5.79,-2.24,0.00
12600,-17.62,-52.26,0.00,5.67,-2.41,0.00
12606,-17.62,-49.49,0.00,5.65,-2.53,0.00
12613,-15.88,-46.75,0.00,5.65,-2.65,0.00
12618,-14.88,-43.45,0.00,6.00,-2.61,0.00
12627,-8.12,-39.18,0.00,6.93,-2.45,0.00
12633,-8.12,-34.70,0.00,6.93,-2.48,0.00
12638,19.00,-31.24,0.00,7.61,-2.86,0.00
12647,19.00,-29.16,0.00,8.12,-3.67,0.00
12652,30.06,-28.77,0.00,8.12,-4.65,0.00
12658,23.38,-30.53,0.00,8.10,-5.04,0.00
12667,30.88,-32.79,0.00,8.29,-4.89,0.00
12674,30.88,-33.45,0.00,8.29,-5.11,0.00
12679,83.62,-32.89,0.00,8.41,-5.90,0.00
12686,83.62,-32.33,0.00,11.76,-7.02,0.00
12693,91.81,-29.48,0.00,11.76,-8.05,0.00
12698,75.25,-17.79,0.00,6.48,-8.81,0.00
12707,75.25,2.26,0.00,14.19,-10.15,0.00
12715,72.00,19.71,0.00,14.19,-12.32,0.00
12718,11.94,28.55,0.00,9.83,-12.91,0.00
12727,-55.81,25.71,0.00,1.80,-9.38,0.00
12733,-55.81,9.78,0.00,1.80,-3.52,0.00
12739,-15.88,-6.24,0.00,6.61,0.59,0.00
12747,-15.88,-10.93,0.00,5.76,1.63,0.00
12755,-24.00,-6.03,0.00,5.76,0.97,0.00
12759,16.50,1.83,0.00,4.08,-0.23,0.00
12767,16.50,5.35,0.00,3.47,-1.61,0.00
12773,22.25,4.06,0.00,3.47,-2.58,0.00
12779,-14.38,3.16,0.00,4.07,-2.71,0.00
12787,-14.38,5.33,0.00,4.53,-2.18,0.00
12794,-20.00,9.02,0.00,4.53,-1.55,0.00
12799,-13.69,11.80,0.00,4.38,-1.25,0.00
12806,-13.69,12.65,0.00,4.38,-1.28,0.00
12812,-8.88,11.92,0.00,4.19,-1.46,0.00
12819,-11.44,10.80,0.00,4.18,-1.64,0.00
12828,-16.12,10.69,0.00,4.38,-1.69,0.00
12832,-16.12,11.89,0.00,4.38,-1.59,0.00
12839,-18.19,13.41,0.00,4.43,-1.50,0.00
12847,-18.19,14.58,0.00,4.29,-1.48,0.00
12852,-17.25,15.04,0.00,4.29,-1.50,0.00
12859,-18.06,14.76,0.00,4.35,-1.50,0.00
12867,-18.06,14.36,0.00,4.33,-1.44,0.00
12872,-21.62,14.40,0.00,4.33,-1.36,0.00
12879,-21.00,14.87,0.00,4.32,-1.32,0.00
12889,-21.00,15.28,0.00,4.35,-1.29,0.00
12892,-22.94,15.50,0.00,4.35,-1.26,0.00
12899,-20.00,15.60,0.00,4.51,-1.23,0.00
12909,-20.00,15.32,0.00,4.42,-1.26,0.00
12912,-18.44,14.84,0.00,4.42,-1.33,0.00
12919,-24.62,15.34,0.00,4.65,-1.39,0.00
12928,-24.62,17.51,0.00,4.61,-1.37,0.00
12932,-32.62,20.42,0.00,4.61,-1.25,0.00
12939,-29.75,23.08,0.00,4.37,-1.13,0.00
12949,-29.75,24.88,0.00,4.77,-1.08,0.00
12952,-24.19,24.88,0.00,4.77,-1.10,0.00
12962,-21.38,22.68,0.00,4.61,-1.17,0.00
12968,-21.38,19.65,0.00,4.56,-1.21,0.00
12972,-21.31,17.46,0.00,4.56,-1.16,0.00
12981,-22.25,16.53,0.00,4.77,-1.06,0.00
12988,-22.25,16.60,0.00,4.65,-1.03,0.00
12992,-18.25,16.88,0.00,4.65,-1.03,0.00
13000,-15.81,16.24,0.00,5.19,-0.96,0.00
13009,-15.81,14.54,0.00,4.61,-0.87,0.00
13013,-2.94,10.74,0.00,4.61,-1.01,0.00
13020,5.06,3.65,0.00,4.33,-1.22,0.00
13028,5.06,-3.60,0.00,4.38,-1.24,0.00
13032,0.56,-7.45,0.00,4.38,-1.20,0.00
13040,0.19,-7.71,0.00,4.50,-1.16,0.00
13048,0.19,-5.94,0.00,4.62,-1.15,0.00
13053,-2.00,-3.76,0.00,4.62,-1.19,0.00
13061,-1.75,-1.52,0.00,4.46,-1.21,0.00
13068,-1.75,0.66,0.00,4.46,-1.18,0.00
13072,-3.69,2.24,0.00,4.54,-1.10,0.00
13080,-3.00,3.28,0.00,4.58,-1.02,0.00
13089,-3.00,4.04,0.00,4.84,-1.00,0.00
13092,-1.81,4.34,0.00,4.84,-1.04,0.00
13100,-1.44,3.92,0.00,4.78,-1.05,0.00
13107,-1.44,3.06,0.00,4.75,-1.05,0.00
13112,-1.81,2.21,0.00,4.75,-1.11,0.00
13122,-1.44,1.34,0.00,4.72,-1.17,0.00
13128,-1.44,0.43,0.00,4.57,-1.16,0.00
13133,-2.75,-0.27,0.00,4.57,-1.11,0.00
13140,-3.94,-0.76,0.00,4.53,-1.09,0.00
13149,-3.94,-1.11,0.00,4.89,-1.08,0.00
13153,-4.31,-1.26,0.00,4.89,-1.05,0.00
13160,-5.31,-1.27,0.00,4.62,-1.02,0.00
13167,-5.31,-1.37,0.00,4.62,-1.05,0.00
13172,-5.75,-1.67,0.00,4.64,-1.07,0.00
13180,-6.25,-2.16,0.00,4.58,-1.03,0.00
13186,-6.25,-2.66,0.00,4.58,-0.98,0.00
13192,-5.44,-3.00,0.00,4.47,-0.97,0.00
13201,-5.38,-3.21,0.00,4.76,-0.99,0.00
13207,-5.38,-3.32,0.00,4.76,-0.96,0.00
13214,-5.12,-3.28,0.00,4.74,-0.99,0.00
13220,-4.00,-3.10,0.00,4.25,-1.07,0.00
13228,-4.00,-2.93,0.00,4.25,-0.98,0.00
13232,-6.62,-2.89,0.00,4.44,-0.82,0.00
13240,-4.19,-2.66,0.00,4.50,-0.78,0.00
13248,-4.19,-1.87,0.00,4.75,-0.81,0.00
13252,-5.38,-0.95,0.00,4.75,-0.81,0.00
13260,-5.81,-0.28,0.00,4.45,-0.80,0.00
13267,-5.81,0.23,0.00,4.45,-0.83,0.00
13272,-5.38,0.63,0.00,4.65,-0.91,0.00
13281,-6.12,1.03,0.00,4.51,-0.98,0.00
13288,-6.12,1.52,0.00,4.51,-0.97,0.00
13292,-5.69,2.03,0.00,4.56,-0.91,0.00
13301,-6.31,2.57,0.00,4.49,-0.91,0.00
13306,-6.31,3.13,0.00,4.49,-1.01,0.00
13312,-4.88,3.71,0.00,4.95,-1.07,0.00
13320,-5.31,3.80,0.00,4.42,-0.97,0.00
13326,-5.31,2.60,0.00,4.42,-0.79,0.00
13332,-3.12,0.83,0.00,4.67,-0.67,0.00
13340,-0.69,-0.30,0.00,4.56,-0.71,0.00
13349,-0.69,-0.43,0.00,4.56,-0.88,0.00
13353,0.56,-0.12,0.00,4.54,-1.00,0.00
13360,0.56,0.09,0.00,4.59,-0.96,0.00
13368,0.56,0.40,0.00,4.59,-0.89,0.00
13372,2.06,0.88,0.00,4.78,-0.87,0.00
13382,3.12,1.48,0.00,4.84,-0.88,0.00
13385,3.12,2.13,0.00,4.84,-0.89,0.00
13392,2.06,2.43,0.00,4.59,-0.89,0.00
13400,2.06,2.18,0.00,4.56,-0.84,0.00
13405,4.19,1.54,0.00,4.56,-0.77,0.00
13412,5.19,0.82,0.00,4.71,-0.77,0.00
13421,5.19,0.42,0.00,4.75,-0.87,0.00
13427,6.31,0.55,0.00,4.75,-1.00,0.00
13432,5.31,1.01,0.00,4.54,-1.05,0.00
13441,4.56,0.94,0.00,4.67,-1.00,0.00
13445,4.56,-0.12,0.00,4.67,-0.99,0.00
13452,7.06,-1.52,0.00,4.74,-1.02,0.00
13459,7.06,-2.63,0.00,4.74,-1.03,0.00
13465,5.94,-3.35,0.00,4.76,-1.02,0.00
13472,5.81,-3.83,0.00,4.56,-0.97,0.00
13483,6.88,-4.36,0.00,4.59,-0.93,0.00
13486,6.88,-4.95,0.00,4.59,-0.92,0.00
13493,6.25,-5.28,0.00,4.61,-0.97,0.00
13501,6.25,-5.17,0.00,4.51,-1.02,0.00
13505,6.25,-4.88,0.00,4.51,-0.97,0.00
13513,4.56,-4.60,0.00,4.56,-0.92,0.00
13520,4.56,-4.28,0.00,4.53,-0.92,0.00
13526,4.94,-3.98,0.00,4.53,-0.91,0.00
13532,3.56,-3.64,0.00,4.71,-0.89,0.00
13540,3.56,-3.26,0.00,4.46,-0.91,0.00
13545,2.25,-2.85,0.00,4.46,-0.97,0.00
13554,2.25,-2.39,0.00,4.60,-0.98,0.00
13560,2.25,-2.01,0.00,4.60,-0.92,0.00
13565,0.50,-1.67,0.00,4.67,-0.87,0.00
13572,0.44,-1.08,0.00,4.52,-0.92,0.00
13581,0.44,-0.36,0.00,4.53,-0.98,0.00
13585,-2.56,0.38,0.00,4.53,-0.98,0.00
13593,-2.50,1.32,0.00,4.59,-0.95,0.00
13601,-2.50,2.24,0.00,4.59,-0.94,0.00
13605,-2.50,2.78,0.00,4.57,-0.94,0.00
13612,-4.56,3.20,0.00,4.62,-0.93,0.00
13620,-4.56,3.89,0.00,4.51,-0.91,0.00
13625,-4.38,4.77,0.00,4.51,-0.88,0.00
13632,-5.00,5.51,0.00,4.80,-0.86,0.00
13638,-5.00,5.82,0.00,4.80,-0.85,0.00
13645,-2.62,5.08,0.00,4.47,-0.84,0.00
13653,-2.56,3.22,0.00,4.72,-0.85,0.00
13658,-2.56,1.53,0.00,4.72,-0.86,0.00
13665,-2.19,0.83,0.00,4.63,-0.86,0.00
13677,-2.56,0.84,0.00,4.64,-0.83,0.00
13686,-1.81,1.99,0.00,4.75,-0.81,0.00
13693,-2.00,2.58,0.00,4.46,-0.86,0.00
13700,-2.00,2.84,0.00,4.29,-0.85,0.00
13705,-2.19,3.17,0.00,4.29,-0.77,0.00
13712,-2.19,4.08,0.00,4.75,-0.72,0.00
13719,-2.19,5.27,0.00,4.75,-0.75,0.00
13726,-3.06,6.05,0.00,4.54,-0.79,0.00
13732,-2.75,6.46,0.00,4.66,-0.73,0.00
13738,-2.75,6.96,0.00,4.66,-0.56,0.00
13745,-0.06,7.50,0.00,4.68,-0.60,0.00
13753,-4.31,7.85,0.00,4.72,-0.86,0.00
13760,-4.31,8.02,0.00,4.72,-0.87,0.00
13765,-2.06,8.24,0.00,4.66,-0.65,0.00
13773,5.12,8.87,0.00,4.85,-0.50,0.00
13781,5.12,9.79,0.00,4.51,-0.48,0.00
13785,5.19,10.87,0.00,4.51,-0.58,0.00
13793,3.88,12.14,0.00,4.60,-0.70,0.00
13800,3.88,13.12,0.00,4.60,-0.75,0.00
13805,3.75,13.53,0.00,4.78,-0.74,0.00
13813,5.50,13.67,0.00,4.76,-0.70,0.00
13821,5.50,13.78,0.00,4.76,-0.72,0.00
13827,5.19,14.05,0.00,4.76,-0.69,0.00
13833,9.88,14.87,0.00,4.58,-0.59,0.00
13838,9.88,16.10,0.00,4.58,-0.61,0.00
13845,7.62,17.42,0.00,4.63,-0.72,0.00
13855,11.69,18.96,0.00,5.18,-0.76,0.00
13862,11.69,20.46,0.00,5.18,-0.66,0.00
13866,14.62,21.45,0.00,4.63,-0.57,0.00
13876,12.50,21.91,0.00,4.69,-0.59,0.00
13882,12.50,21.98,0.00,4.69,-0.61,0.00
13889,14.69,21.94,0.00,4.96,-0.65,0.00
13894,16.12,22.11,0.00,5.04,-0.77,0.00
13910,16.12,22.50,0.00,5.04,-0.88,0.00
13914,17.94,23.13,0.00,3.84,-0.91,0.00
13921,18.12,24.85,0.00,4.12,-0.95,0.00
13927,18.12,27.91,0.00,4.12,-1.06,0.00
13934,15.25,31.83,0.00,5.10,-1.14,0.00
13940,20.38,36.72,0.00,5.11,-1.13,0.00
13946,20.38,41.37,0.00,5.11,-1.15,0.00
13954,24.50,44.42,0.00,4.98,-1.19,0.00
13956,28.50,46.54,0.00,5.33,-1.21,0.00
13968,28.50,48.41,0.00,5.33,-1.20,0.00
13978,25.25,50.00,0.00,4.51,-1.26,0.00
13985,15.19,52.39,0.00,5.65,-1.36,0.00
13986,15.19,56.27,0.00,4.35,-1.26,0.00
13994,23.69,59.94,0.00,4.35,-0.93,0.00
13995,19.81,60.37,0.00,5.19,-0.68,0.00
14007,19.81,56.31,0.00,5.19,-0.64,0.00
14020,35.31,52.07,0.00,5.61,-0.77,0.00
14021,50.00,53.11,0.00,5.41,-0.99,0.00
14072,50.00,58.96,0.00,5.41,-1.12,0.00
14079,45.81,65.61,0.00,3.84,-1.06,0.00
14080,28.38,72.49,0.00,6.41,-0.99,0.00
14081,28.38,80.11,0.00,6.41,-1.14,0.00
14082,33.62,87.61,0.00,5.57,-1.28,0.00
14082,30.75,93.85,0.00,5.63,-1.15,0.00
14083,30.75,96.51,0.00,5.63,-0.98,0.00
14084,51.44,99.54,0.00,6.05,-0.98,0.00
14085,41.00,108.16,0.00,3.31,-0.82,0.00
14097,41.00,117.17,0.00,3.31,-0.17,0.00
14101,45.50,121.41,0.00,9.03,0.14,0.00
14102,43.12,123.11,0.00,6.42,-0.58,0.00
14103,43.12,125.63,0.00,6.42,-1.54,0.00
14116,52.38,130.25,0.00,7.37,-2.00,0.00
14119,59.94,140.76,0.00,7.55,-2.01,0.00
14131,59.94,157.73,0.00,7.55,-1.80,0.00
14137,68.75,173.88,0.00,7.55,-1.57,0.00
14140,76.06,184.81,0.00,7.14,-1.45,0.00
14149,76.06,190.33,0.00,7.14,-1.51,0.00
14154,78.44,191.60,0.00,6.87,-1.62,0.00
14156,78.44,190.96,0.00,8.04,-1.58,0.00
14159,75.69,190.38,0.00,8.04,-1.39,0.00
14165,84.38,193.20,0.00,8.60,-1.24,0.00
14175,117.06,202.06,0.00,8.09,-1.20,0.00
14185,117.06,213.38,0.00,8.09,-1.20,0.00
14187,134.12,222.00,0.00,9.18,-1.28,0.00
14193,134.12,227.08,0.00,7.36,-1.35,0.00
14199,132.44,230.65,0.00,7.36,-1.15,0.00
14207,150.44,206.45,0.00,5.60,-0.78,0.00
14213,150.44,154.16,0.00,11.36,-0.92,0.00
14220,88.00,125.96,0.00,11.36,-1.93,0.00
14226,11.94,106.66,0.00,14.97,-3.49,0.00
14234,-71.38,54.40,0.00,4.71,-4.34,0.00
14241,-71.38,-13.18,0.00,4.71,-3.24,0.00
14247,-119.38,-66.78,0.00,1.09,-1.31,0.00
14254,-119.38,-99.40,0.00,1.82,0.30,0.00
14259,-124.00,-113.50,0.00,1.82,1.82,0.00
14266,-64.56,-112.88,0.00,2.28,2.79,0.00
14274,-46.56,-106.67,0.00,3.33,2.89,0.00
14281,-46.56,-101.97,0.00,3.33,2.67,0.00
14286,-27.06,-101.06,0.00,3.83,2.39,0.00
14292,-27.06,-103.44,0.00,5.04,1.85,0.00
14299,-24.56,-107.82,0.00,5.04,1.09,0.00
14307,-22.06,-115.42,0.00,5.01,0.47,0.00
14313,-22.06,-125.93,0.00,4.43,0.16,0.00
14320,-32.12,-135.14,0.00,4.43,0.12,0.00
14325,-34.06,-140.44,0.00,5.79,0.26,0.00
14334,-21.00,-142.96,0.00,6.75,0.46,0.00
14340,-21.00,-145.45,0.00,6.75,0.53,0.00
14347,-28.56,-147.80,0.00,6.94,0.46,0.00
14354,-28.56,-148.55,0.00,7.63,0.26,0.00
14359,-19.81,-148.99,0.00,7.63,-0.04,0.00
14366,-17.31,-151.79,0.00,7.59,-0.43,0.00
14374,-17.31,-157.11,0.00,6.88,-0.99,0.00
14380,-28.06,-161.26,0.00,6.88,-1.53,0.00
14387,-26.19,-160.64,0.00,6.09,-1.95,0.00
14394,-26.19,-155.82,0.00,6.09,-2.34,0.00
14399,-36.31,-149.03,0.00,6.47,-2.72,0.00
14407,-34.38,-140.29,0.00,6.67,-3.03,0.00
14415,-34.38,-131.29,0.00,7.53,-3.16,0.00
14420,-43.19,-124.72,0.00,7.53,-3.13,0.00
14425,-43.00,-119.79,0.00,8.57,-3.08,0.00
14434,-43.00,-115.45,0.00,9.59,-3.05,0.00
14439,-38.25,-111.29,0.00,9.59,-3.02,0.00
14447,-44.06,-106.59,0.00,9.51,-2.95,0.00
14453,-44.06,-102.78,0.00,10.68,-2.75,0.00
14459,-40.38,-101.77,0.00,10.68,-2.52,0.00
14466,-41.12,-103.75,0.00,10.61,-2.36,0.00
14476,-41.12,-107.01,0.00,9.88,-2.27,0.00
14480,-38.19,-109.32,0.00,9.88,-2.22,0.00
14487,-37.31,-110.45,0.00,9.45,-2.22,0.00
14493,-37.31,-111.44,0.00,9.45,-2.29,0.00
14499,-35.31,-100.76,0.00,9.15,-2.51,0.00
14508,-31.12,-78.79,0.00,9.44,-3.02,0.00
14513,-31.12,-72.88,0.00,9.58,-3.67,0.00
14519,-26.19,-83.93,0.00,9.58,-4.18,0.00
14526,-23.44,-92.94,0.00,9.48,-4.49,0.00
14534,-23.44,-95.97,0.00,9.10,-4.70,0.00
14539,-20.38,-95.72,0.00,9.10,-4.88,0.00
14548,-15.12,-94.56,0.00,8.76,-4.60,0.00
14552,-15.12,-93.39,0.00,8.76,-3.97,0.00
14559,-13.38,-92.61,0.00,8.48,-3.91,0.00
14566,-14.25,-91.59,0.00,8.75,-4.33,0.00
14575,-14.25,-89.56,0.00,8.95,-4.49,0.00
14580,-17.00,-87.02,0.00,8.95,-4.30,0.00
14588,-21.06,-84.03,0.00,8.86,-4.01,0.00
14592,-21.06,-80.70,0.00,8.86,-3.77,0.00
14599,-28.06,-77.21,0.00,8.78,-3.60,0.00
14610,-31.25,-72.25,0.00,8.61,-3.45,0.00
14613,-31.25,-66.15,0.00,8.61,-3.31,0.00
14619,-33.06,-60.55,0.00,8.52,-3.23,0.00
14626,-28.69,-54.43,0.00,8.30,-3.08,0.00
14635,-28.69,-47.58,0.00,8.69,-2.79,0.00
14639,-6.88,-41.02,0.00,8.69,-2.61,0.00
14648,17.69,-34.12,0.00,8.75,-2.99,0.00
14652,17.69,-27.90,0.00,8.75,-4.00,0.00
14660,18.81,-23.59,0.00,8.73,-4.91,0.00
14666,18.00,-18.70,0.00,8.70,-4.85,0.00
14675,18.00,-11.81,0.00,7.17,-4.19,0.00
14681,80.19,-5.58,0.00,7.17,-3.99,0.00
14688,80.25,-1.04,0.00,6.53,-4.61,0.00
14692,80.25,2.79,0.00,6.53,-5.74,0.00
14700,23.31,8.06,0.00,6.19,-6.44,0.00
14712,9.88,15.78,0.00,6.71,-6.06,0.00
14713,9.88,21.67,0.00,6.71,-5.22,0.00
14719,-12.19,22.96,0.00,7.34,-4.43,0.00
14728,-27.25,20.45,0.00,4.81,-3.10,0.00
14735,-27.25,15.84,0.00,5.55,-1.27,0.00
14740,-3.75,11.60,0.00,5.55,-0.22,0.00
14748,12.56,8.09,0.00,4.09,-0.38,0.00
14753,12.56,4.69,0.00,4.09,-1.15,0.00
14760,6.44,2.60,0.00,3.91,-1.94,0.00
14765,-7.94,2.07,0.00,4.34,-2.37,0.00
14775,-7.94,2.58,0.00,4.52,-2.24,0.00
14779,-9.75,4.81,0.00,4.52,-1.85,0.00
14788,-8.75,7.45,0.00,4.36,-1.58,0.00
14792,-8.75,8.58,0.00,4.36,-1.47,0.00
14800,-11.56,8.60,0.00,4.54,-1.43,0.00
14807,-11.56,8.43,0.00,4.51,-1.42,0.00
14812,-9.50,8.34,0.00,4.51,-1.44,0.00
14819,-10.44,8.36,0.00,4.63,-1.48,0.00
14827,-11.56,8.92,0.00,4.32,-1.53,0.00
14835,-11.56,10.32,0.00,4.32,-1.58,0.00
14839,-14.50,11.92,0.00,4.16,-1.61,0.00
14846,-14.50,13.15,0.00,4.32,-1.58,0.00
14854,-17.25,13.69,0.00,4.32,-1.49,0.00
14860,-14.56,13.28,0.00,4.58,-1.43,0.00
14867,-16.06,12.36,0.00,4.41,-1.46,0.00
14874,-16.06,11.67,0.00,4.41,-1.51,0.00
14879,-22.31,12.14,0.00,4.42,-1.55,0.00
14887,-24.00,14.44,0.00,4.29,-1.53,0.00
14892,-24.00,17.55,0.00,4.29,-1.41,0.00
14903,-22.81,20.00,0.00,4.36,-1.29,0.00
14909,-20.50,21.24,0.00,4.63,-1.23,0.00
14916,-20.50,21.10,0.00,4.65,-1.22,0.00
14920,-21.19,20.22,0.00,4.65,-1.21,0.00
14927,-17.81,19.17,0.00,4.65,-1.20,0.00
14935,-17.81,17.94,0.00,4.65,-1.22,0.00
14939,-16.38,16.93,0.00,4.77,-1.23,0.00
14947,-16.38,16.41,0.00,4.80,-1.19,0.00
14954,-14.75,15.89,0.00,4.80,-1.13,0.00
14960,-12.62,14.75,0.00,4.81,-1.11,0.00
14965,-12.62,13.25,0.00,4.81,-1.14,0.00
14973,-13.81,12.06,0.00,4.81,-1.13,0.00
14978,-12.12,11.27,0.00,4.89,-1.13,0.00
14988,-12.00,10.67,0.00,4.78,-1.16,0.00
14991,-12.00,10.14,0.00,4.78,-1.17,0.00
15000,-11.06,9.85,0.00,4.66,-1.16,0.00
15008,-11.00,9.86,0.00,4.65,-1.16,0.00
15015,-11.00,9.95,0.00,4.65,-1.11,0.00
15019,-9.00,9.76,0.00,4.91,-1.04,0.00
15026,-7.44,8.82,0.00,4.63,-1.01,0.00
15033,-7.44,7.22,0.00,4.63,-1.02,0.00
15038,-2.81,5.03,0.00,4.82,-1.02,0.00
15047,-2.81,2.02,0.00,4.82,-1.00,0.00
15052,2.25,-0.91,0.00,4.71,-1.04,0.00
15061,-0.06,-2.67,0.00,4.73,-1.19,0.00
15066,-1.19,-2.67,0.00,4.71,-1.27,0.00
15073,-1.19,-1.40,0.00,4.71,-1.23,0.00
15078,-1.12,-0.03,0.00,4.69,-1.19,0.00
15087,-0.19,0.90,0.00,4.54,-1.16,0.00
15092,-0.19,1.31,0.00,4.54,-1.12,0.00
15101,0.88,1.23,0.00,4.71,-1.11,0.00
15108,0.75,0.73,0.00,4.51,-1.14,0.00
15119,0.44,-0.23,0.00,4.75,-1.18,0.00
15127,-0.50,-0.16,0.00,4.73,-1.18,0.00
15133,-0.50,0.01,0.00,4.73,-1.17,0.00
15138,-0.75,0.10,0.00,4.92,-1.14,0.00
15145,-0.75,0.15,0.00,4.92,-1.10,0.00
15154,-1.75,0.10,0.00,4.82,-1.05,0.00
15161,-2.31,-0.31,0.00,4.96,-1.03,0.00
15167,-2.31,-1.06,0.00,4.88,-1.05,0.00
15172,-3.25,-1.91,0.00,4.88,-0.92,0.00
15178,-3.69,-2.98,0.00,4.83,-0.69,0.00
15187,-3.69,-4.22,0.00,4.76,-0.74,0.00
15193,-4.62,-5.22,0.00,4.76,-0.95,0.00
15201,-4.00,-5.76,0.00,4.81,-1.07,0.00
15210,-4.00,-5.77,0.00,4.58,-1.13,0.00
15216,-4.81,-5.50,0.00,4.58,-1.12,0.00
15221,-5.12,-5.13,0.00,4.71,-1.07,0.00
15227,-5.12,-4.57,0.00,4.74,-1.09,0.00
15232,-6.12,-3.86,0.00,4.74,-1.18,0.00
15239,-6.81,-3.00,0.00,4.72,-1.23,0.00
15245,-6.81,-2.19,0.00,4.72,-1.17,0.00
15253,-5.56,-1.71,0.00,4.68,-1.10,0.00
15261,-5.25,-1.69,0.00,4.65,-1.09,0.00
15267,-5.25,-2.05,0.00,4.89,-1.11,0.00
15272,-4.19,-2.45,0.00,4.89,-1.15,0.00
15278,-3.81,-2.54,0.00,4.56,-1.17,0.00
15287,-3.81,-2.40,0.00,4.76,-1.11,0.00
15293,-2.12,-1.95,0.00,4.76,-1.00,0.00
15302,-1.62,-0.99,0.00,4.78,-0.91,0.00
15307,-1.62,0.10,0.00,4.68,-0.89,0.00
15316,-0.44,0.91,0.00,4.68,-0.94,0.00
15320,-0.75,1.70,0.00,4.95,-1.01,0.00
15326,-0.75,2.64,0.00,4.56,-1.06,0.00
15334,-0.38,3.57,0.00,4.56,-1.15,0.00
15339,-0.12,4.70,0.00,4.57,-1.19,0.00
15345,-0.12,6.10,0.00,4.57,-1.11,0.00
15354,0.25,7.61,0.00,4.96,-1.00,0.00
15360,-0.19,9.20,0.00,5.25,-0.99,0.00
15367,-0.19,10.35,0.00,4.59,-1.02,0.00
15372,-1.81,9.58,0.00,4.59,-0.96,0.00
15379,3.25,6.38,0.00,4.92,-0.90,0.00
15388,3.25,3.02,0.00,4.92,-0.95,0.00
15395,3.81,1.22,0.00,4.92,-1.01,0.00
15400,1.75,0.66,0.00,4.64,-1.01,0.00
15405,1.75,0.95,0.00,4.64,-1.01,0.00
15414,4.44,1.40,0.00,4.75,-1.00,0.00
15419,4.88,1.15,0.00,4.71,-0.97,0.00
15426,4.88,0.00,0.00,4.71,-0.89,0.00
15432,7.56,-1.55,0.00,4.60,-0.84,0.00
15439,7.94,-3.44,0.00,4.79,-0.87,0.00
15445,7.94,-5.47,0.00,4.79,-0.93,0.00
15453,8.81,-6.99,0.00,4.71,-0.96,0.00
15458,10.25,-8.08,0.00,4.62,-0.97,0.00
15467,10.25,-9.02,0.00,4.62,-0.95,0.00
15472,9.56,-9.59,0.00,4.62,-0.92,0.00
15479,7.12,-9.42,0.00,4.59,-0.95,0.00
15487,7.12,-8.61,0.00,4.59,-1.00,0.00
15493,5.88,-7.47,0.00,4.93,-1.06,0.00
15499,2.94,-5.91,0.00,4.57,-1.09,0.00
15506,2.94,-4.23,0.00,4.57,-1.05,0.00
15514,2.88,-2.97,0.00,4.76,-1.00,0.00
15518,2.88,-2.16,0.00,4.73,-0.99,0.00
15529,1.44,-1.62,0.00,4.73,-0.98,0.00
15532,0.25,-1.10,0.00,4.65,-0.98,0.00
15541,-0.50,-0.47,0.00,4.79,-0.98,0.00
15545,-0.50,0.15,0.00,4.79,-0.98,0.00
15554,-0.88,0.55,0.00,4.68,-1.00,0.00
15558,-0.88,0.68,0.00,4.75,-1.01,0.00
15567,-1.12,0.75,0.00,4.75,-0.98,0.00
15571,-2.50,1.05,0.00,4.75,-0.94,0.00
15579,-2.75,1.61,0.00,4.68,-0.92,0.00
15587,-2.75,2.15,0.00,4.68,-0.92,0.00
15592,-3.69,2.56,0.00,4.57,-0.92,0.00
15599,-4.62,3.03,0.00,4.84,-0.94,0.00
15605,-4.62,3.64,0.00,4.84,-1.00,0.00
15614,-5.62,4.30,0.00,4.78,-1.03,0.00
15619,-6.06,5.04,0.00,4.87,-0.99,0.00
15625,-6.06,5.74,0.00,4.87,-0.95,0.00
15633,-6.31,6.14,0.00,4.64,-0.92,0.00
15640,-6.38,6.34,0.00,5.00,-0.90,0.00
15644,-6.38,6.64,0.00,5.00,-0.93,0.00
15654,-5.88,6.89,0.00,4.71,-1.00,0.00
15659,-5.88,6.88,0.00,4.89,-1.01,0.00
15666,-6.25,6.53,0.00,4.89,-0.95,0.00
15672,-3.56,5.08,0.00,4.90,-0.91,0.00
15682,-3.81,2.36,0.00,4.72,-0.92,0.00
15688,-3.81,0.06,0.00,4.72,-0.90,0.00
15692,-3.56,-0.78,0.00,4.79,-0.87,0.00
15699,-3.56,-0.61,0.00,4.61,-0.87,0.00
15706,-4.06,-0.08,0.00,4.61,-0.83,0.00
15715,-4.00,0.57,0.00,4.89,-0.78,0.00
15722,-4.00,1.34,0.00,4.74,-0.77,0.00
15728,-3.94,1.97,0.00,4.74,-0.77,0.00
15733,-3.19,2.16,0.00,4.66,-0.76,0.00
15740,-3.12,1.99,0.00,4.70,-0.73,0.00
15746,-3.12,1.78,0.00,4.70,-0.72,0.00
15754,-3.38,1.76,0.00,4.64,-0.71,0.00
15759,-3.38,1.93,0.00,4.79,-0.64,0.00
15767,-3.12,2.30,0.00,4.79,-0.53,0.00
15772,-0.88,3.02,0.00,4.61,-0.60,0.00
15780,-1.50,3.90,0.00,4.86,-0.79,0.00
15788,-1.50,4.52,0.00,4.86,-0.71,0.00
15792,-3.38,5.03,0.00,5.18,-0.41,0.00
15799,-3.38,5.83,0.00,4.82,-0.30,0.00
15806,4.06,6.89,0.00,4.82,-0.52,0.00
15815,4.44,8.56,0.00,5.14,-0.80,0.00
15820,2.56,10.65,0.00,4.89,-0.88,0.00
15827,2.56,12.01,0.00,4.89,-0.81,0.00
15833,2.31,12.37,0.00,4.74,-0.70,0.00
15840,3.69,12.30,0.00,4.59,-0.64,0.00
15848,3.69,12.15,0.00,4.59,-0.63,0.00
15855,4.94,12.24,0.00,4.93,-0.65,0.00
15859,4.94,12.77,0.00,4.68,-0.66,0.00
15867,7.00,13.60,0.00,4.68,-0.64,0.00
15872,7.56,14.73,0.00,4.82,-0.62,0.00
15880,9.75,16.19,0.00,4.47,-0.62,0.00
15887,9.75,17.60,0.00,4.47,-0.66,0.00
15892,13.44,18.73,0.00,4.63,-0.72,0.00
15899,13.44,19.69,0.00,4.63,-0.77,0.00
15907,15.12,20.71,0.00,4.14,-0.83,0.00
15914,13.69,22.36,0.00,4.29,-0.85,0.00
15920,13.69,24.70,0.00,4.86,-0.80,0.00
15927,15.75,27.43,0.00,4.86,-0.81,0.00
15932,20.06,30.99,0.00,5.20,-0.94,0.00
15940,20.88,34.87,0.00,4.84,-1.14,0.00
15947,20.88,37.71,0.00,4.84,-1.32,0.00
15954,21.44,39.92,0.00,5.04,-1.36,0.00
15961,21.44,42.58,0.00,5.04,-1.27,0.00
15967,22.62,45.03,0.00,4.97,-1.19,0.00
15972,20.75,46.50,0.00,5.27,-1.20,0.00
15980,20.75,47.30,0.00,5.41,-1.22,0.00
15986,21.19,47.73,0.00,5.41,-1.20,0.00
15992,20.75,48.10,0.00,5.21,-1.18,0.00
15998,20.75,48.64,0.00,5.21,-1.18,0.00
16007,23.31,49.10,0.00,4.77,-1.21,0.00
16012,25.62,49.55,0.00,5.34,-1.22,0.00
16020,25.62,50.33,0.00,5.70,-1.22,0.00
16026,36.06,51.98,0.00,5.70,-1.33,0.00
16032,35.75,55.85,0.00,4.44,-1.35,0.00
16040,35.75,61.44,0.00,7.17,-1.14,0.00
16046,20.62,66.61,0.00,7.17,-1.04,0.00
16053,17.75,71.94,0.00,4.08,-1.05,0.00
16058,17.75,78.13,0.00,4.08,-0.92,0.00
16068,12.88,83.81,0.00,6.15,-0.90,0.00
16072,27.19,90.29,0.00,6.03,-1.19,0.00
16080,27.19,98.80,0.00,6.19,-1.57,0.00
16086,30.00,108.34,0.00,6.19,-1.77,0.00
16094,29.50,120.17,0.00,5.43,-1.73,0.00
16098,29.50,132.70,0.00,5.43,-1.48,0.00
16107,11.06,140.97,0.00,6.07,-1.23,0.00
16114,-1.12,142.99,0.00,8.12,-1.26,0.00
16120,-1.12,140.50,0.00,7.06,-1.60,0.00
16124,24.38,140.33,0.00,7.06,-1.95,0.00
16132,22.81,149.31,0.00,7.65,-1.99,0.00
16141,22.81,163.80,0.00,7.51,-1.77,0.00
16147,27.56,175.38,0.00,7.51,-1.58,0.00
16152,29.25,181.70,0.00,7.45,-1.50,0.00
16159,29.25,184.44,0.00,7.45,-1.41,0.00
16168,37.12,185.24,0.00,8.55,-1.35,0.00
16172,54.06,186.72,0.00,6.72,-1.31,0.00
16181,54.06,190.58,0.00,5.26,-1.24,0.00
16193,84.62,198.34,0.00,2.96,-1.45,0.00
16199,84.62,194.65,0.00,2.96,-2.14,0.00
16207,34.81,180.88,0.00,9.69,-3.20,0.00
16212,-49.44,146.32,0.00,2.93,-3.77,0.00
16220,-49.44,95.15,0.00,2.93,-2.72,0.00
16225,-56.62,48.17,0.00,0.94,-0.84,0.00
16235,-39.19,13.14,0.00,2.57,0.64,0.00
16241,-39.19,-8.88,0.00,4.09,1.47,0.00
16245,-32.62,-18.90,0.00,4.09,1.77,0.00
16252,-35.19,-25.72,0.00,4.46,1.87,0.00
16259,-35.19,-34.55,0.00,4.46,2.02,0.00
16267,-28.50,-45.12,0.00,4.13,2.18,0.00
16272,-26.44,-57.94,0.00,4.08,2.27,0.00
16281,-26.44,-70.19,0.00,4.65,2.30,0.00
16285,-22.62,-77.82,0.00,4.65,2.28,0.00
16293,-19.31,-81.88,0.00,5.27,2.21,0.00
16299,-19.31,-84.69,0.00,5.27,2.12,0.00
16307,-16.00,-87.62,0.00,5.61,1.99,0.00
16312,-8.50,-92.48,0.00,5.66,1.78,0.00
16320,-8.50,-98.78,0.00,5.66,1.53,0.00
16325,-4.12,-103.75,0.00,6.26,1.27,0.00
16333,-9.81,-106.55,0.00,6.89,0.87,0.00
16341,-9.81,-108.00,0.00,7.23,0.34,0.00
16345,-7.50,-109.54,0.00,7.23,-0.12,0.00
16352,-7.50,-112.29,0.00,7.91,-0.44,0.00
16360,-16.00,-115.17,0.00,7.91,-0.74,0.00
16366,-19.31,-117.54,0.00,7.67,-1.04,0.00
16373,-22.69,-119.95,0.00,7.81,-1.42,0.00
16381,-22.69,-121.89,0.00,7.93,-1.89,0.00
16386,-28.44,-122.65,0.00,7.93,-2.23,0.00
16393,-33.31,-122.58,0.00,8.14,-2.35,0.00
16399,-33.31,-122.56,0.00,8.14,-2.36,0.00
16407,-32.31,-122.81,0.00,7.99,-2.34,0.00
16412,-32.31,-123.12,0.00,8.07,-2.31,0.00
16421,-27.50,-122.87,0.00,8.05,-2.28,0.00
16425,-20.00,-120.67,0.00,8.05,-2.24,0.00
16433,-28.12,-116.60,0.00,8.10,-2.19,0.00
16441,-28.12,-112.99,0.00,8.10,-2.13,0.00
16446,-23.06,-110.56,0.00,8.30,-2.14,0.00
16452,-23.06,-108.24,0.00,9.04,-2.30,0.00
16460,-20.00,-105.31,0.00,9.04,-2.55,0.00
16466,-18.00,-100.14,0.00,9.25,-2.78,0.00
16473,-15.06,-91.42,0.00,8.81,-2.95,0.00
16481,-15.06,-81.11,0.00,8.81,-3.01,0.00
16485,-17.56,-73.17,0.00,8.95,-2.97,0.00
16493,-21.12,-69.95,0.00,9.00,-2.89,0.00
16500,-21.12,-71.24,0.00,9.00,-2.80,0.00
16506,-19.06,-74.57,0.00,8.65,-2.77,0.00
16512,-19.06,-77.64,0.00,8.28,-2.78,0.00
16521,-19.94,-79.82,0.00,8.28,-2.81,0.00
16525,-19.94,-81.43,0.00,8.05,-2.80,0.00
16533,-18.19,-82.60,0.00,8.03,-2.73,0.00
16541,-18.19,-82.95,0.00,8.03,-2.63,0.00
16545,-19.06,-82.52,0.00,8.15,-2.56,0.00
16552,-19.06,-81.63,0.00,8.11,-2.49,0.00
16560,-17.56,-80.47,0.00,8.11,-2.43,0.00
16566,-16.81,-79.01,0.00,7.56,-2.41,0.00
16573,-16.69,-77.33,0.00,7.40,-2.44,0.00
16583,-16.69,-75.70,0.00,7.40,-2.47,0.00
16585,-19.81,-74.07,0.00,7.23,-2.45,0.00
16593,-22.50,-71.76,0.00,7.03,-2.35,0.00
16600,-22.50,-68.90,0.00,7.03,-2.22,0.00
16605,-20.31,-66.24,0.00,6.40,-2.19,0.00
16612,-20.31,-63.93,0.00,6.06,-2.30,0.00
16621,-15.75,-61.93,0.00,6.06,-2.41,0.00
16627,-9.56,-59.65,0.00,6.21,-2.47,0.00
16633,14.12,-56.45,0.00,6.75,-2.72,0.00
16644,14.12,-53.03,0.00,6.75,-3.25,0.00
16645,31.56,-50.67,0.00,7.08,-4.04,0.00
16652,31.56,-49.69,0.00,7.61,-5.03,0.00
16660,32.56,-48.97,0.00,7.61,-5.74,0.00
16665,24.44,-46.48,0.00,7.73,-5.69,0.00
16673,24.44,-42.00,0.00,8.31,-5.27,0.00
16682,46.56,-36.91,0.00,8.31,-5.27,0.00
16686,71.12,-30.77,0.00,9.83,-5.81,0.00
16694,59.94,-21.91,0.00,11.59,-6.42,0.00
16700,59.94,-11.31,0.00,11.59,-6.65,0.00
16705,44.94,-1.12,0.00,10.61,-6.40,0.00
16712,44.94,8.24,0.00,10.61,-5.94,0.00
16726,-16.06,18.34,0.00,0.52,-4.08,0.00
16734,-3.31,15.13,0.00,1.02,-1.57,0.00
16741,-3.31,1.51,0.00,1.02,0.19,0.00
16745,24.19,-11.38,0.00,8.14,-0.05,0.00
16752,24.19,-12.58,0.00,4.19,-1.63,0.00
16761,-0.19,-6.52,0.00,4.19,-2.95,0.00
16766,16.50,-1.62,0.00,4.22,-3.30,0.00
16773,16.50,-1.94,0.00,4.04,-2.95,0.00
16780,-8.69,-3.20,0.00,4.04,-2.16,0.00
16785,-24.06,1.17,0.00,4.09,-1.47,0.00
16795,-6.62,9.30,0.00,4.01,-1.22,0.00
16799,-6.62,15.14,0.00,4.01,-1.36,0.00
16806,-8.38,17.07,0.00,5.00,-1.61,0.00
16813,-8.38,16.83,0.00,4.91,-1.75,0.00
16821,-14.50,16.49,0.00,4.91,-1.76,0.00
16826,-17.50,17.18,0.00,4.20,-1.70,0.00
16834,-17.50,18.22,0.00,4.15,-1.63,0.00
16841,-19.75,18.98,0.00,4.15,-1.58,0.00
16847,-18.81,19.47,0.00,4.58,-1.55,0.00
16853,-18.81,19.59,0.00,4.58,-1.55,0.00
16866,-19.00,19.44,0.00,4.65,-1.55,0.00
16867,-20.44,19.54,0.00,4.78,-1.48,0.00
16874,-20.44,20.14,0.00,4.78,-1.38,0.00
16884,-18.75,20.91,0.00,4.78,-1.31,0.00
16901,-17.31,20.97,0.00,4.71,-1.28,0.00
16938,-17.31,19.82,0.00,4.57,-1.29,0.00
16939,-18.31,18.09,0.00,4.57,-1.25,0.00
16944,-17.50,16.22,0.00,4.88,-1.22,0.00
16944,-17.50,14.34,0.00,4.88,-1.22,0.00
16945,-18.00,13.17,0.00,4.85,-1.24,0.00
16946,-23.75,13.29,0.00,4.86,-1.25,0.00
16947,-23.75,14.40,0.00,4.86,-1.22,0.00
16947,-22.00,15.29,0.00,4.81,-1.22,0.00
16954,-20.69,15.14,0.00,4.72,-1.27,0.00
16988,-20.69,14.35,0.00,4.72,-1.33,0.00
17022,-18.25,12.87,0.00,4.93,-1.35,0.00
17023,-18.25,11.98,0.00,4.98,-1.33,0.00
17024,-16.50,11.04,0.00,4.98,-1.28,0.00
17024,-17.81,10.17,0.00,5.05,-1.21,0.00
17031,-17.81,9.54,0.00,5.07,-1.18,0.00
17031,-16.94,9.29,0.00,5.07,-1.22,0.00
17032,-15.38,9.04,0.00,5.11,-1.22,0.00
17033,-15.38,8.39,0.00,4.85,-1.13,0.00
17033,-5.06,5.95,0.00,4.85,-1.12,0.00
17034,0.62,0.66,0.00,5.05,-1.19,0.00
17035,0.62,-4.80,0.00,4.97,-1.23,0.00
17049,-4.06,-7.58,0.00,4.97,-1.20,0.00
17142,-4.69,-7.60,0.00,4.94,-1.16,0.00
17148,-4.69,-6.16,0.00,4.94,-1.16,0.00
17149,-4.75,-4.55,0.00,4.65,-1.15,0.00
17150,-5.62,-3.06,0.00,4.60,-1.08,0.00
17151,-5.62,-1.73,0.00,4.85,-1.04,0.00
17151,-6.12,-0.49,0.00,4.85,-1.11,0.00
17152,-6.81,1.12,0.00,4.40,-1.23,0.00
17153,-6.81,2.93,0.00,4.27,-1.35,0.00
17153,-7.50,4.22,0.00,4.27,-1.46,0.00
17154,-7.50,4.83,0.00,4.73,-1.51,0.00
17155,-7.94,5.17,0.00,4.73,-1.45,0.00
17156,-7.81,5.63,0.00,4.69,-1.35,0.00
17157,-6.50,5.96,0.00,4.36,-1.30,0.00
17158,-6.50,5.83,0.00,4.21,-1.39,0.00
17158,-5.69,5.35,0.00,4.21,-1.58,0.00
17165,-5.19,4.72,0.00,4.58,-1.72,0.00
17166,-5.19,4.22,0.00,4.58,-1.77,0.00
17167,-7.06,3.92,0.00,4.61,-1.72,0.00
17174,-7.50,3.51,0.00,4.86,-1.58,0.00
17184,-7.50,2.91,0.00,4.84,-1.36,0.00
17186,-10.75,2.24,0.00,4.84,-1.13,0.00
17187,-11.56,1.53,0.00,4.80,-1.03,0.00
17195,-11.56,0.95,0.00,4.75,-1.14,0.00
17199,-13.25,0.65,0.00,4.75,-1.30,0.00
17206,-13.25,0.58,0.00,4.82,-1.40,0.00
17214,-13.62,0.77,0.00,4.82,-1.42,0.00
17220,-13.06,1.23,0.00,4.60,-1.36,0.00
17225,-13.06,1.69,0.00,4.52,-1.19,0.00
17234,-12.38,1.85,0.00,4.52,-0.95,0.00
17241,-10.12,1.73,0.00,4.55,-0.79,0.00
17247,-8.62,1.48,0.00,4.84,-0.77,0.00
17252,-8.62,1.20,0.00,4.84,-0.81,0.00
17259,-7.25,0.97,0.00,4.73,-0.86,0.00
17267,-4.94,0.63,0.00,4.51,-0.88,0.00
17274,-4.94,0.08,0.00,4.67,-0.89,0.00
17279,-4.00,-0.60,0.00,4.67,-0.88,0.00
17287,-2.00,-1.20,0.00,4.73,-0.91,0.00
17294,-2.00,-1.45,0.00,4.73,-0.97,0.00
17299,-0.12,-1.29,0.00,4.68,-0.89,0.00
17309,-0.12,-0.95,0.00,4.87,-0.66,0.00
17315,-0.31,-0.63,0.00,4.62,-0.64,0.00
17319,1.50,-0.30,0.00,4.62,-0.82,0.00
17327,2.31,0.22,0.00,4.88,-0.97,0.00
17333,2.31,0.75,0.00,4.88,-1.07,0.00
17341,3.25,1.19,0.00,4.75,-1.10,0.00
17347,2.81,1.78,0.00,4.84,-1.02,0.00
17352,2.81,2.49,0.00,4.84,-0.90,0.00
17360,1.31,3.15,0.00,5.00,-0.84,0.00
17367,1.88,3.99,0.00,4.83,-0.87,0.00
17379,0.69,6.00,0.00,4.86,-0.91,0.00
17387,0.69,6.95,0.00,4.92,-0.91,0.00
17395,0.69,7.95,0.00,4.92,-0.89,0.00
17399,-0.44,8.73,0.00,4.78,-0.88,0.00
17406,-0.44,9.18,0.00,4.90,-0.93,0.00
17415,0.38,9.39,0.00,4.90,-1.00,0.00
17419,-0.50,9.45,0.00,4.97,-1.03,0.00
17426,0.50,8.78,0.00,4.77,-0.96,0.00
17432,0.50,6.83,0.00,4.77,-0.84,0.00
17439,3.69,4.24,0.00,5.02,-0.80,0.00
17447,5.50,1.83,0.00,4.87,-0.85,0.00
17452,5.50,0.33,0.00,4.87,-0.93,0.00
17461,5.75,-0.29,0.00,4.92,-0.97,0.00
17467,5.75,-0.75,0.00,4.84,-1.01,0.00
17479,7.06,-1.73,0.00,4.91,-1.13,0.00
17487,7.19,-2.48,0.00,4.91,-1.12,0.00
17493,7.19,-3.29,0.00,4.91,-1.08,0.00
17498,7.50,-3.96,0.00,4.78,-1.05,0.00
17506,8.56,-4.57,0.00,4.79,-1.02,0.00
17514,8.56,-5.11,0.00,4.79,-0.99,0.00
17518,7.25,-5.44,0.00,4.91,-0.98,0.00
17526,8.19,-5.61,0.00,4.79,-1.00,0.00
17532,8.19,-5.66,0.00,4.79,-1.03,0.00
17538,7.62,-5.01,0.00,4.71,-1.04,0.00
17547,6.06,-3.67,0.00,4.64,-1.03,0.00
17552,6.06,-3.14,0.00,4.64,-1.05,0.00
17559,6.00,-3.60,0.00,4.67,-1.11,0.00
17567,5.31,-3.96,0.00,4.74,-1.15,0.00
17572,5.31,-3.84,0.00,4.74,-1.16,0.00
17578,2.81,-3.24,0.00,4.71,-1.13,0.00
17587,0.94,-2.16,0.00,4.83,-1.10,0.00
17593,0.94,-0.93,0.00,4.83,-1.06,0.00
17598,0.69,0.02,0.00,4.92,-1.04,0.00
17607,0.69,0.70,0.00,4.92,-1.03,0.00
17612,0.06,1.16,0.00,4.81,-1.01,0.00
17619,-2.00,1.62,0.00,4.80,-0.97,0.00
17627,-2.00,2.21,0.00,4.69,-0.95,0.00
17632,-2.75,2.76,0.00,4.69,-0.98,0.00
17638,-2.56,3.19,0.00,5.24,-1.03,0.00
17647,-2.56,3.48,0.00,4.56,-1.01,0.00
17652,-3.38,3.55,0.00,4.56,-0.94,0.00
17658,-0.44,2.62,0.00,5.07,-0.83,0.00
17667,-0.44,0.18,0.00,5.16,-0.61,0.00
17672,-0.88,-2.27,0.00,5.16,-0.38,0.00
17678,-0.69,-3.38,0.00,4.77,-0.42,0.00
17689,-0.69,-3.45,0.00,5.12,-0.63,0.00
17692,1.56,-3.32,0.00,5.12,-0.80,0.00
17699,0.44,-3.45,0.00,4.64,-0.90,0.00
17705,0.44,-3.66,0.00,4.64,-0.95,0.00
17712,1.00,-3.70,0.00,4.88,-0.96,0.00
17719,0.62,-3.44,0.00,4.70,-0.86,0.00
17727,0.62,-2.99,0.00,4.89,-0.67,0.00
17732,-0.81,-2.54,0.00,4.89,-0.57,0.00
17739,1.12,-2.16,0.00,4.98,-0.58,0.00
17747,1.12,-1.94,0.00,4.73,-0.63,0.00
17752,2.19,-1.92,0.00,4.73,-0.66,0.00
17759,2.75,-2.11,0.00,4.72,-0.69,0.00
17768,2.75,-2.53,0.00,4.66,-0.72,0.00
17774,2.88,-2.91,0.00,4.66,-0.71,0.00
17778,1.19,-2.88,0.00,4.67,-0.67,0.00
17787,1.19,-2.37,0.00,4.87,-0.65,0.00
17791,1.31,-1.63,0.00,4.87,-0.66,0.00
17799,1.38,-0.70,0.00,4.80,-0.67,0.00
17805,1.38,0.30,0.00,4.80,-0.71,0.00
17812,0.81,1.09,0.00,4.62,-0.63,0.00
17819,0.69,1.60,0.00,4.79,-0.47,0.00
17827,0.69,1.90,0.00,4.81,-0.50,0.00
17832,1.31,2.14,0.00,4.81,-0.69,0.00
17839,1.19,2.64,0.00,4.83,-0.81,0.00
17848,1.19,3.32,0.00,4.69,-0.78,0.00
17852,0.50,3.96,0.00,4.69,-0.67,0.00
17859,0.31,4.67,0.00,4.77,-0.61,0.00
17867,0.31,5.50,0.00,4.73,-0.64,0.00
17872,0.44,6.32,0.00,4.73,-0.71,0.00
17879,1.00,7.28,0.00,4.98,-0.64,0.00
17888,1.00,8.31,0.00,4.65,-0.65,0.00
17892,6.12,8.87,0.00,4.65,-1.10,0.00
17899,6.19,9.65,0.00,5.13,-1.51,0.00
17907,6.19,11.82,0.00,5.13,-1.36,0.00
17912,9.12,14.25,0.00,4.83,-1.05,0.00
17921,9.12,15.50,0.00,4.94,-0.92,0.00
17928,9.12,15.75,0.00,4.27,-0.88,0.00
17932,8.06,15.57,0.00,4.27,-0.87,0.00
17939,12.81,15.58,0.00,4.58,-0.91,0.00
17948,12.81,16.12,0.00,3.28,-0.83,0.00
17952,8.06,19.38,0.00,3.28,-0.62,0.00
17959,15.50,28.63,0.00,4.21,-0.68,0.00
17968,15.50,41.04,0.00,4.05,-0.91,0.00
17973,15.50,50.15,0.00,4.05,-0.83,0.00
17980,23.12,54.95,0.00,4.88,-0.55,0.00
17988,23.12,58.12,0.00,4.58,-0.37,0.00
17992,25.44,63.26,0.00,4.58,-0.29,0.00
18000,35.62,72.53,0.00,5.44,-0.35,0.00
18005,35.62,81.58,0.00,5.44,-0.61,0.00
18012,45.88,87.41,0.00,5.49,-0.98,0.00
18019,52.56,93.64,0.00,5.53,-1.31,0.00
18032,53.94,110.29,0.00,5.00,-1.24,0.00
18040,37.19,120.49,0.00,5.93,-1.13,0.00
18052,22.56,142.96,0.00,6.25,-0.96,0.00
18060,31.75,153.90,0.00,6.96,-0.81,0.00
18066,31.75,165.75,0.00,6.96,-0.81,0.00
18072,29.56,177.06,0.00,7.72,-0.76,0.00
18080,56.94,188.78,0.00,7.74,-0.40,0.00
18087,56.94,198.90,0.00,7.74,0.17,0.00
18092,84.94,203.62,0.00,7.37,0.40,0.00
18101,106.31,202.72,0.00,7.47,-0.04,0.00
18105,106.31,199.18,0.00,7.47,-0.80,0.00
18112,131.56,195.96,0.00,8.66,-1.35,0.00
18121,132.31,191.81,0.00,7.44,-1.60,0.00
18129,132.31,184.97,0.00,7.44,-1.68,0.00
18131,84.06,174.24,0.00,12.52,-1.84,0.00
18140,38.81,151.33,0.00,11.32,-2.17,0.00
18147,38.81,116.24,0.00,11.32,-2.35,0.00
18152,-32.31,78.56,0.00,5.38,-2.08,0.00
18159,-32.31,41.96,0.00,2.57,-1.05,0.00
18165,-43.00,13.69,0.00,2.57,0.55,0.00
18171,-7.69,-1.45,0.00,0.67,1.78,0.00
18180,-5.62,-6.30,0.00,1.51,2.16,0.00
18188,-5.62,-4.50,0.00,1.51,1.95,0.00
18192,-5.06,-1.30,0.00,2.30,1.56,0.00
18201,-13.75,-1.97,0.00,2.97,1.24,0.00
18206,-13.75,-7.74,0.00,2.97,1.11,0.00
18212,-26.56,-16.72,0.00,2.62,1.28,0.00
18220,-22.12,-29.49,0.00,2.18,1.72,0.00
18225,-22.12,-44.06,0.00,2.18,2.08,0.00
18232,-13.56,-55.08,0.00,2.01,2.20,0.00
18240,-12.06,-61.70,0.00,2.95,2.19,0.00
18247,-12.06,-57.72,0.00,2.95,2.05,0.00
18252,-16.19,-46.40,0.00,3.77,1.76,0.00
18259,-16.19,-48.64,0.00,3.51,1.34,0.00
18266,-29.00,-63.40,0.00,3.51,0.97,0.00
18272,-34.06,-76.13,0.00,4.33,0.71,0.00
18281,-38.69,-83.66,0.00,3.98,0.28,0.00
18288,-38.69,-87.00,0.00,3.98,-0.29,0.00
18293,-51.81,-87.51,0.00,4.59,-0.85,0.00
18303,-54.75,-86.66,0.00,5.17,-1.52,0.00
18306,-54.75,-76.78,0.00,5.17,-2.23,0.00
18312,-58.44,-61.41,0.00,5.88,-2.71,0.00
18321,-63.88,-64.98,0.00,6.77,-2.93,0.00
18326,-63.88,-84.86,0.00,6.77,-3.06,0.00
18332,-58.94,-101.88,0.00,7.53,-3.05,0.00
18340,-44.12,-112.81,0.00,7.68,-2.96,0.00
18348,-44.12,-119.34,0.00,7.68,-2.99,0.00
18352,-42.94,-122.45,0.00,7.87,-3.10,0.00
18359,-42.94,-123.42,0.00,7.87,-3.13,0.00
18367,-29.81,-122.63,0.00,7.97,-3.15,0.00
18372,-23.94,-119.34,0.00,8.58,-3.38,0.00
18382,-27.69,-113.87,0.00,8.58,-3.88,0.00
18388,-27.69,-108.09,0.00,8.58,-4.27,0.00
18393,-22.12,-105.41,0.00,9.02,-4.37,0.00
18401,-17.25,-107.49,0.00,10.19,-4.42,0.00
18406,-17.25,-111.39,0.00,10.19,-4.65,0.00
18413,-18.88,-114.66,0.00,9.59,-4.92,0.00
18421,-18.88,-117.38,0.00,9.41,-5.01,0.00
18426,-15.00,-119.15,0.00,9.41,-4.95,0.00
18433,-8.38,-119.38,0.00,9.22,-4.80,0.00
18440,0.69,-118.07,0.00,8.65,-4.55,0.00
18448,0.69,-115.91,0.00,8.65,-4.24,0.00
18453,9.81,-113.00,0.00,8.88,-3.99,0.00
18459,9.81,-108.99,0.00,8.97,-3.81,0.00
18466,17.06,-104.26,0.00,8.97,-3.67,0.00
18473,22.69,-98.29,0.00,8.84,-3.59,0.00
18481,22.69,-91.74,0.00,8.80,-3.53,0.00
18487,28.12,-86.40,0.00,8.80,-3.50,0.00
18492,32.06,-81.61,0.00,9.25,-3.55,0.00
18501,32.06,-76.83,0.00,9.42,-3.70,0.00
18506,30.56,-73.10,0.00,9.42,-3.84,0.00
18513,23.44,-70.15,0.00,9.39,-3.93,0.00
18521,23.44,-67.45,0.00,8.49,-3.92,0.00
18525,12.88,-64.78,0.00,8.49,-3.74,0.00
18535,13.19,-60.38,0.00,8.14,-3.56,0.00
18541,13.19,-53.99,0.00,8.19,-3.70,0.00
18549,16.31,-47.67,0.00,8.19,-4.12,0.00
18553,19.69,-39.12,0.00,9.80,-4.48,0.00
18559,19.69,-26.42,0.00,9.80,-4.58,0.00
18565,36.94,-10.29,0.00,25.28,-5.08,0.00
18573,-2.25,5.03,0.00,11.51,-6.20,0.00
18587,7.38,2.58,0.00,3.28,-7.17,0.00
18592,-28.56,-8.05,0.00,-0.99,-6.89,0.00
18603,-28.56,-14.28,0.00,5.56,-5.17,0.00
18606,-56.12,-11.27,0.00,5.56,-2.22,0.00
18614,-39.56,0.06,0.00,6.82,0.18,0.00
18621,-39.56,11.77,0.00,4.44,1.06,0.00
18625,-1.31,15.96,0.00,4.44,0.72,0.00
18634,4.94,12.70,0.00,3.34,-0.23,0.00
18641,4.94,8.08,0.00,4.42,-1.24,0.00
18647,-17.69,7.84,0.00,4.42,-1.69,0.00
18653,-18.56,12.70,0.00,4.84,-1.55,0.00
18659,-18.56,18.23,0.00,4.84,-1.23,0.00
18666,-5.00,20.06,0.00,4.90,-1.08,0.00
18674,-7.12,17.79,0.00,4.58,-1.29,0.00
18680,-7.12,14.23,0.00,4.56,-1.52,0.00
18690,-14.56,12.37,0.00,4.56,-1.47,0.00
18695,-12.88,12.56,0.00,4.69,-1.29,0.00
18701,-12.88,13.14,0.00,4.77,-1.24,0.00
18706,-10.31,12.84,0.00,4.77,-1.35,0.00
18716,-10.75,11.39,0.00,4.56,-1.50,0.00
18721,-10.75,9.57,0.00,4.52,-1.59,0.00
18726,-13.12,8.47,0.00,4.52,-1.56,0.00
18734,-14.56,8.54,0.00,4.38,-1.48,0.00
18741,-14.56,9.43,0.00,4.28,-1.40,0.00
18746,-13.12,10.66,0.00,4.28,-1.36,0.00
18753,-12.62,12.34,0.00,4.50,-1.36,0.00
18759,-12.62,14.26,0.00,4.50,-1.36,0.00
18765,-14.12,15.98,0.00,4.59,-1.38,0.00
18774,-17.25,17.50,0.00,4.60,-1.43,0.00
18780,-17.25,18.61,0.00,4.60,-1.46,0.00
18787,-18.00,19.02,0.00,4.82,-1.44,0.00
18793,-17.50,18.77,0.00,5.00,-1.36,0.00
18803,-17.50,18.15,0.00,4.77,-1.26,0.00
18808,-16.50,17.47,0.00,4.77,-1.16,0.00
18815,-16.81,16.80,0.00,4.81,-1.10,0.00
18821,-16.81,16.29,0.00,4.87,-1.10,0.00
18826,-16.19,16.24,0.00,4.87,-1.15,0.00
18836,-17.31,16.66,0.00,4.89,-1.18,0.00
18852,-17.31,17.11,0.00,4.89,-1.12,0.00
18853,-15.88,17.00,0.00,5.03,-1.03,0.00
18855,-11.81,15.51,0.00,4.95,-0.98,0.00
18859,-11.81,12.69,0.00,4.95,-0.96,0.00
18865,-11.69,9.92,0.00,4.95,-0.95,0.00
18875,-11.00,7.84,0.00,4.89,-0.97,0.00
18881,-11.00,6.40,0.00,4.79,-1.05,0.00
18890,-10.25,5.50,0.00,4.79,-1.14,0.00
18895,-10.06,4.81,0.00,5.07,-1.18,0.00
18909,-10.06,4.33,0.00,5.07,-1.19,0.00
18923,-9.56,3.99,0.00,4.94,-1.19,0.00
18924,-9.56,3.58,0.00,4.91,-1.18,0.00
18925,-10.00,3.15,0.00,4.98,-1.13,0.00
18941,-9.75,2.80,0.00,4.98,-1.08,0.00
18947,-7.62,2.41,0.00,4.96,-1.09,0.00
18948,-7.62,1.74,0.00,4.96,-1.18,0.00
18958,-1.69,0.18,0.00,4.88,-1.22,0.00
18972,-0.31,-2.58,0.00,4.87,-1.16,0.00
18973,-0.31,-5.12,0.00,4.87,-1.13,0.00
18977,-0.25,-6.28,0.00,4.79,-1.13,0.00
18977,0.69,-6.20,0.00,5.04,-1.11,0.00
18983,0.69,-5.44,0.00,4.87,-1.07,0.00
18997,1.56,-4.70,0.00,4.87,-1.06,0.00
19002,1.75,-4.24,0.00,4.91,-1.07,0.00
19016,1.75,-3.89,0.00,4.91,-1.05,0.00
19017,0.88,-3.55,0.00,4.93,-1.04,0.00
19018,0.88,-3.22,0.00,4.90,-1.08,0.00
19026,0.69,-2.85,0.00,4.90,-1.15,0.00
19032,-1.62,-2.34,0.00,5.10,-1.19,0.00
19044,-2.94,-1.58,0.00,4.88,-1.15,0.00
19058,-2.06,-1.76,0.00,4.97,-1.15,0.00
19065,-3.38,-2.35,0.00,4.81,-1.14,0.00
19066,-3.38,-3.24,0.00,4.81,-1.08,0.00
19067,-2.31,-3.99,0.00,4.84,-1.03,0.00
19085,-2.31,-4.35,0.00,4.72,-1.04,0.00
19092,-2.81,-4.49,0.00,4.72,-1.06,0.00
19093,-2.94,-4.60,0.00,5.00,-1.09,0.00
19109,-4.06,-4.80,0.00,4.72,-1.18,0.00
19115,-4.06,-5.18,0.00,4.72,-1.30,0.00
19116,-5.12,-5.75,0.00,4.55,-1.30,0.00
19117,-5.12,-6.47,0.00,4.78,-1.16,0.00
19118,-5.19,-7.07,0.00,4.78,-1.03,0.00
19126,-4.69,-7.32,0.00,4.75,-0.98,0.00
19134,-4.69,-7.32,0.00,4.67,-0.95,0.00
19140,-4.69,-7.23,0.00,4.67,-0.95,0.00
19145,-4.44,-7.12,0.00,4.64,-0.97,0.00
19153,-4.56,-6.90,0.00,4.74,-1.01,0.00
19158,-4.56,-6.49,0.00,4.74,-1.06,0.00
19166,-4.12,-5.96,0.00,4.73,-1.08,0.00
19173,-4.12,-5.33,0.00,4.50,-1.11,0.00
19178,-3.81,-4.61,0.00,4.50,-1.12,0.00
19186,-3.38,-3.65,0.00,4.87,-1.09,0.00
19193,-2.38,-2.39,0.00,4.77,-1.04,0.00
19202,-2.38,-1.14,0.00,4.77,-1.03,0.00
19206,-2.06,-0.28,0.00,4.74,-1.06,0.00
19212,-2.06,0.18,0.00,4.74,-1.07,0.00
19218,-2.31,0.36,0.00,4.63,-1.03,0.00
19228,-1.38,0.54,0.00,4.80,-0.99,0.00
19234,-1.38,0.94,0.00,4.80,-1.02,0.00
19238,-1.81,1.44,0.00,4.66,-1.08,0.00
19245,-1.75,2.14,0.00,4.90,-1.06,0.00
19253,-1.75,3.07,0.00,4.81,-1.02,0.00
19258,-2.31,4.07,0.00,4.81,-1.00,0.00
19274,-3.38,5.40,0.00,4.86,-0.98,0.00
19279,-3.38,7.10,0.00,4.86,-0.92,0.00
19280,-4.12,8.62,0.00,4.87,-0.88,0.00
19286,-4.50,9.79,0.00,5.19,-0.87,0.00
19295,-4.50,10.56,0.00,4.67,-0.90,0.00
19299,-3.19,9.55,0.00,4.67,-0.97,0.00
19305,-0.62,5.98,0.00,4.94,-1.04,0.00
19312,-0.62,2.34,0.00,4.94,-1.05,0.00
19318,0.00,0.53,0.00,4.78,-0.98,0.00
19327,0.62,0.28,0.00,4.73,-0.84,0.00
19333,0.62,1.01,0.00,4.73,-0.76,0.00
19338,0.25,1.83,0.00,4.87,-0.80,0.00
19345,0.06,2.15,0.00,4.66,-0.87,0.00
19354,0.06,2.03,0.00,4.96,-0.87,0.00
19358,2.12,2.16,0.00,4.96,-0.86,0.00
19368,2.75,3.10,0.00,4.86,-0.91,0.00
19373,2.75,4.38,0.00,4.86,-0.99,0.00
19378,1.31,4.91,0.00,5.03,-1.01,0.00
19388,4.81,3.90,0.00,5.12,-0.98,0.00
19394,4.81,1.79,0.00,4.76,-0.98,0.00
19400,6.31,-0.17,0.00,4.76,-0.98,0.00
19406,5.94,-1.50,0.00,4.89,-0.96,0.00
19412,5.94,-2.17,0.00,4.89,-0.96,0.00
19418,5.56,-2.28,0.00,4.83,-1.00,0.00
19427,4.88,-2.01,0.00,4.89,-1.03,0.00
19432,4.88,-1.61,0.00,4.89,-1.02,0.00
19439,3.06,-1.23,0.00,4.77,-0.99,0.00
19445,3.75,-0.73,0.00,4.76,-0.99,0.00
19456,3.75,-0.11,0.00,4.86,-1.02,0.00
19459,1.94,0.49,0.00,4.86,-1.02,0.00
19466,1.31,1.06,0.00,4.84,-0.99,0.00
19472,1.31,1.47,0.00,4.84,-0.97,0.00
19479,0.31,1.59,0.00,4.74,-0.94,0.00
19487,-0.75,1.55,0.00,4.99,-0.92,0.00
19494,-0.75,1.59,0.00,4.91,-0.92,0.00
19499,-0.75,1.68,0.00,4.91,-0.97,0.00
19508,-1.75,1.78,0.00,4.88,-0.98,0.00
19511,-1.75,1.96,0.00,4.88,-0.93,0.00
19520,-1.88,2.12,0.00,4.71,-0.90,0.00
19527,-2.31,2.05,0.00,5.06,-0.96,0.00
19532,-2.31,1.68,0.00,5.06,-1.03,0.00
19541,-2.88,0.98,0.00,4.74,-1.00,0.00
19546,-1.56,-0.02,0.00,4.74,-0.86,0.00
19554,-1.56,-0.82,0.00,4.92,-0.74,0.00
19558,-0.81,-1.16,0.00,4.92,-0.75,0.00
19565,0.00,-1.45,0.00,4.85,-0.82,0.00
19572,0.00,-1.86,0.00,4.85,-0.85,0.00
19579,-0.19,-2.32,0.00,5.03,-0.85,0.00
19586,-0.31,-2.65,0.00,4.82,-0.83,0.00
19594,-0.31,-2.65,0.00,4.82,-0.80,0.00
19598,0.00,-2.42,0.00,4.63,-0.78,0.00
19606,-0.19,-2.14,0.00,4.95,-0.81,0.00
19612,-0.19,-1.81,0.00,4.95,-0.86,0.00
19618,-0.94,-1.50,0.00,4.89,-0.93,0.00
19626,-0.94,-1.27,0.00,4.87,-0.99,0.00
19632,0.31,-1.06,0.00,4.87,-0.98,0.00
19639,-0.69,-0.77,0.00,4.86,-0.93,0.00
19646,-0.62,-0.43,0.00,4.59,-0.87,0.00
19654,-0.62,-0.17,0.00,4.59,-0.82,0.00
19658,-0.69,0.09,0.00,5.04,-0.77,0.00
19665,0.56,0.62,0.00,4.76,-0.74,0.00
19671,0.56,1.38,0.00,4.76,-0.76,0.00
19679,0.50,2.07,0.00,4.91,-0.80,0.00
19686,0.12,2.71,0.00,4.68,-0.80,0.00
19694,0.12,3.33,0.00,4.68,-0.71,0.00
19699,4.19,3.88,0.00,4.66,-0.68,0.00
19706,5.25,4.69,0.00,4.88,-0.77,0.00
19712,5.25,5.93,0.00,4.88,-0.81,0.00
19719,3.44,7.21,0.00,5.06,-0.77,0.00
19727,3.44,8.23,0.00,4.89,-0.73,0.00
19732,4.12,8.77,0.00,4.89,-0.70,0.00
19740,4.38,8.81,0.00,5.00,-0.67,0.00
19746,4.81,8.57,0.00,4.72,-0.71,0.00
19754,4.81,8.05,0.00,4.72,-0.90,0.00
19759,3.12,7.94,0.00,5.05,-1.02,0.00
19765,3.12,8.90,0.00,4.98,-0.92,0.00
19772,3.38,10.10,0.00,4.98,-0.77,0.00
19780,4.00,10.62,0.00,4.86,-0.70,0.00
19786,4.00,10.49,0.00,5.18,-0.73,0.00
19793,5.81,10.31,0.00,5.18,-0.78,0.00
19801,4.69,10.19,0.00,4.87,-0.79,0.00
19807,9.12,9.67,0.00,4.81,-0.78,0.00
19815,9.12,8.97,0.00,4.81,-0.78,0.00
19819,6.69,8.92,0.00,5.02,-0.82,0.00
19827,6.69,9.83,0.00,4.96,-0.85,0.00
19831,7.06,10.86,0.00,4.96,-0.80,0.00
19842,10.06,11.10,0.00,4.67,-0.73,0.00
19847,10.75,11.16,0.00,4.70,-0.77,0.00
19855,10.75,12.07,0.00,4.70,-0.89,0.00
19859,9.62,13.79,0.00,4.09,-0.96,0.00
19866,9.62,15.85,0.00,4.28,-0.90,0.00
19872,12.94,18.61,0.00,4.28,-0.79,0.00
19880,15.25,23.24,0.00,4.37,-0.75,0.00
19888,15.94,29.83,0.00,4.53,-0.78,0.00
19898,15.94,36.58,0.00,5.11,-0.86,0.00
19900,16.50,41.90,0.00,5.11,-1.00,0.00
19907,18.69,46.31,0.00,5.33,-1.10,0.00
19912,18.69,50.24,0.00,5.33,-1.05,0.00
19919,26.06,52.90,0.00,5.05,-1.01,0.00
19925,26.06,54.21,0.00,5.05,-1.10,0.00
19932,23.06,55.75,0.00,5.77,-1.22,0.00
19941,26.56,58.65,0.00,5.25,-1.22,0.00
19947,26.94,62.35,0.00,4.71,-1.04,0.00
19955,26.94,66.44,0.00,4.71,-0.76,0.00
19959,40.94,70.81,0.00,5.20,-0.61,0.00
19965,40.94,75.29,0.00,6.00,-0.83,0.00
19972,55.38,78.12,0.00,6.00,-1.35,0.00
19982,56.19,80.76,0.00,4.88,-1.66,0.00
19988,56.19,87.25,0.00,6.02,-1.50,0.00
20000,30.88,103.38,0.00,6.38,-1.33,0.00
20007,38.00,111.50,0.00,5.49,-1.49,0.00
20012,38.00,118.80,0.00,5.49,-1.69,0.00
20021,40.81,125.92,0.00,7.31,-1.89,0.00
20026,40.81,134.90,0.00,7.06,-1.92,0.00
20032,44.38,147.02,0.00,7.06,-1.63,0.00
20041,38.00,165.13,0.00,7.64,-1.28,0.00
20047,48.50,185.63,0.00,7.39,-1.18,0.00
20055,48.50,199.84,0.00,7.39,-1.30,0.00
20059,58.81,205.10,0.00,7.67,-1.32,0.00
20066,58.81,204.17,0.00,7.67,-1.05,0.00
20072,69.00,201.48,0.00,7.75,-0.78,0.00
20080,79.94,201.81,0.00,7.86,-0.90,0.00
20087,79.94,206.87,0.00,5.74,-1.26,0.00
20099,83.44,217.54,0.00,3.01,-1.42,0.00
20107,83.44,216.20,0.00,11.45,-1.88,0.00
20114,56.75,205.86,0.00,11.45,-3.09,0.00
20119,7.06,175.17,0.00,9.26,-3.92,0.00
20126,7.06,127.01,0.00,9.26,-3.55,0.00
20133,-21.62,80.07,0.00,0.62,-2.05,0.00
20141,-35.94,39.36,0.00,1.21,0.28,0.00
20149,-35.94,6.75,0.00,2.51,2.03,0.00
20155,-44.62,-11.86,0.00,2.51,2.34,0.00
20159,-54.06,-20.17,0.00,2.70,2.00,0.00
20166,-54.06,-25.04,0.00,2.70,1.78,0.00
20172,-64.88,-29.42,0.00,3.74,1.40,0.00
20181,-67.50,-37.99,0.00,4.07,0.33,0.00
20186,-67.50,-52.54,0.00,4.07,-1.00,0.00
20199,-55.00,-79.08,0.00,3.28,-0.88,0.00
20207,-55.00,-88.28,0.00,4.51,-0.19,0.00
20212,-55.25,-94.13,0.00,4.51,-0.01,0.00
20218,-53.06,-99.35,0.00,4.65,-0.11,0.00
20225,-53.06,-106.14,0.00,4.65,-0.27,0.00
20233,-64.38,-112.42,0.00,5.86,-0.31,0.00
20240,-59.75,-117.62,0.00,5.78,-0.13,0.00
20248,-59.75,-122.88,0.00,5.81,0.15,0.00
20253,-51.25,-127.48,0.00,5.81,0.38,0.00
20259,-52.00,-130.24,0.00,7.12,0.45,0.00
20265,-52.00,-130.31,0.00,7.12,0.40,0.00
20272,-40.00,-129.03,0.00,7.32,0.27,0.00
20279,-38.75,-127.98,0.00,7.05,0.10,0.00
20286,-38.75,-126.98,0.00,7.05,-0.05,0.00
20299,-31.75,-121.81,0.00,8.07,-0.82,0.00
20308,-31.75,-117.07,0.00,8.17,-1.49,0.00
20312,-42.88,-113.04,0.00,8.17,-1.98,0.00
20318,-58.19,-110.06,0.00,8.33,-2.12,0.00
20325,-58.19,-107.84,0.00,8.33,-1.95,0.00
20332,-50.44,-106.96,0.00,8.54,-1.75,0.00
20341,-51.25,-107.37,0.00,8.73,-1.64,0.00
20348,-51.25,-107.82,0.00,9.21,-1.61,0.00
20352,-44.50,-106.64,0.00,9.21,-1.68,0.00
20359,-40.81,-102.54,0.00,9.02,-1.77,0.00
20365,-40.81,-97.05,0.00,9.02,-1.80,0.00
20373,-33.00,-93.01,0.00,9.16,-1.84,0.00
20380,-33.00,-91.09,0.00,9.09,-2.03,0.00
20386,-20.44,-91.16,0.00,9.09,-2.37,0.00
20395,-15.88,-92.45,0.00,9.06,-2.73,0.00
20401,-9.75,-92.98,0.00,8.85,-3.23,0.00
20408,-9.75,-92.16,0.00,9.21,-3.99,0.00
20412,-6.50,-90.88,0.00,9.21,-4.71,0.00
20418,-6.50,-89.66,0.00,9.55,-5.13,0.00
20425,-7.69,-88.54,0.00,9.55,-5.35,0.00
20433,-13.75,-87.14,0.00,9.40,-5.46,0.00
20440,-19.56,-85.14,0.00,9.27,-5.45,0.00
20448,-19.56,-82.87,0.00,9.02,-5.30,0.00
20453,-22.06,-80.80,0.00,9.02,-5.08,0.00
20459,-24.62,-71.26,0.00,8.64,-4.90,0.00
20465,-24.62,-55.80,0.00,8.64,-4.79,0.00
20474,-23.88,-53.00,0.00,8.12,-4.71,0.00
20479,-21.00,-61.96,0.00,7.25,-4.60,0.00
20486,-21.00,-69.30,0.00,7.25,-4.41,0.00
20499,-14.44,-68.75,0.00,8.01,-4.22,0.00
20508,-14.44,-62.45,0.00,8.50,-4.34,0.00
20512,-14.50,-55.39,0.00,8.50,-4.53,0.00
20518,-22.19,-47.66,0.00,7.55,-4.59,0.00
20525,-22.19,-40.39,0.00,7.55,-4.41,0.00
20535,-23.12,-35.93,0.00,7.00,-4.13,0.00
20541,-20.50,-33.79,0.00,6.75,-3.89,0.00
20552,-15.25,-30.11,0.00,6.57,-3.70,0.00
20560,-12.12,-27.16,0.00,6.10,-3.73,0.00
20565,-12.12,-23.67,0.00,6.10,-3.73,0.00
20572,-8.69,-21.00,0.00,5.84,-3.70,0.00
20578,-8.69,-19.52,0.00,5.41,-3.49,0.00
20586,-8.62,-18.97,0.00,5.41,-3.09,0.00
20600,1.81,-18.98,0.00,5.17,-2.71,0.00
20601,19.75,-16.87,0.00,5.13,-2.71,0.00
20608,19.75,-12.96,0.00,5.13,-3.15,0.00
20612,22.50,-12.67,0.00,4.42,-3.56,0.00
20619,22.50,-15.59,0.00,7.35,-3.82,0.00
20626,49.00,-15.24,0.00,7.35,-4.30,0.00
20635,60.81,-6.68,0.00,2.02,-4.29,0.00
20640,27.81,11.66,0.00,14.06,-2.83,0.00
20648,27.81,35.45,0.00,14.06,-0.72,0.00
20652,17.31,52.47,0.00,9.59,0.56,0.00
20661,39.75,51.97,0.00,4.19,0.37,0.00
20665,39.75,36.64,0.00,4.19,-0.89,0.00
20672,38.25,20.04,0.00,3.76,-2.46,0.00
20678,38.25,10.79,0.00,4.02,-3.48,0.00
20688,8.00,9.10,0.00,4.02,-3.14,0.00
20702,-5.50,17.30,0.00,5.90,-1.32,0.00
20708,-5.50,20.72,0.00,5.90,-1.29,0.00
20711,1.12,22.26,0.00,4.05,-1.67,0.00
20719,1.12,22.22,0.00,4.05,-2.11,0.00
20726,-7.94,22.68,0.00,4.59,-2.22,0.00
20737,-17.00,24.65,0.00,5.10,-1.84,0.00
20738,-17.00,25.99,0.00,5.04,-1.52,0.00
20747,-8.31,25.66,0.00,5.04,-1.64,0.00
20753,-12.62,24.71,0.00,4.51,-1.82,0.00
20760,-17.94,24.30,0.00,5.05,-1.77,0.00
20765,-17.94,24.71,0.00,5.05,-1.68,0.00
20772,-14.44,25.17,0.00,4.67,-1.67,0.00
20778,-14.44,25.20,0.00,4.57,-1.66,0.00
20786,-18.81,25.57,0.00,4.57,-1.62,0.00
20794,-19.81,27.84,0.00,4.50,-1.54,0.00
20802,-18.88,31.39,0.00,5.54,-1.46,0.00
20807,-18.88,33.74,0.00,5.54,-1.47,0.00
20812,-18.44,34.54,0.00,4.83,-1.47,0.00
20818,-18.44,35.01,0.00,4.83,-1.38,0.00
20826,-20.31,35.17,0.00,5.14,-1.27,0.00
20833,-18.75,34.14,0.00,5.09,-1.23,0.00
20840,-18.75,31.93,0.00,5.09,-1.27,0.00
20852,-16.50,27.69,0.00,5.35,-1.30,0.00
20860,-14.50,25.20,0.00,5.53,-1.23,0.00
20866,-14.50,22.14,0.00,5.53,-1.17,0.00
20872,-12.50,19.30,0.00,5.19,-1.15,0.00
20878,-12.50,16.97,0.00,5.19,-1.17,0.00
20886,-12.31,15.18,0.00,5.12,-1.20,0.00
20893,-11.00,13.66,0.00,4.97,-1.25,0.00
20901,-10.56,12.13,0.00,5.01,-1.30,0.00
20908,-10.56,10.75,0.00,5.01,-1.28,0.00
20912,-10.56,9.85,0.00,5.27,-1.26,0.00
20919,-10.56,9.45,0.00,5.27,-1.29,0.00
20927,-7.81,9.11,0.00,5.30,-1.34,0.00
20933,-7.62,8.22,0.00,5.22,-1.37,0.00
20940,-7.62,6.84,0.00,5.22,-1.36,0.00
20948,-8.12,5.72,0.00,5.34,-1.33,0.00
20954,-7.69,5.12,0.00,5.13,-1.30,0.00
20961,-7.69,4.76,0.00,4.95,-1.26,0.00
20965,-6.50,4.28,0.00,4.95,-1.18,0.00
20972,0.88,2.60,0.00,5.02,-1.17,0.00
20979,0.88,-0.69,0.00,5.02,-1.29,0.00
20987,0.56,-3.72,0.00,5.08,-1.23,0.00
20995,0.56,-4.84,0.00,5.12,-0.89,0.00
21000,0.56,-4.05,0.00,5.18,-0.78,0.00
21006,-0.75,-2.40,0.00,5.18,-0.97,0.00
21012,-0.19,-1.12,0.00,5.02,-1.14,0.00
21019,-0.19,-0.40,0.00,5.02,-1.21,0.00
21028,-1.31,0.18,0.00,5.24,-1.20,0.00
21034,-1.06,0.92,0.00,5.15,-1.13,0.00
21043,-1.06,1.63,0.00,5.13,-1.07,0.00
21053,-1.12,1.74,0.00,5.14,-1.14,0.00
21061,-1.12,1.19,0.00,5.24,-1.23,0.00
21065,-2.25,0.60,0.00,5.24,-1.29,0.00
21072,-3.12,0.01,0.00,5.27,-1.32,0.00
21079,-3.12,-0.52,0.00,5.27,-1.35,0.00
21087,-3.44,-0.95,0.00,5.18,-1.37,0.00
21093,-4.56,-1.45,0.00,5.03,-1.36,0.00
21101,-4.56,-2.05,0.00,5.07,-1.32,0.00
21105,-4.94,-2.53,0.00,5.07,-1.26,0.00
21112,-4.19,-2.68,0.00,4.96,-1.18,0.00
